# accelerometer data
# file: 'rgbd_dataset_freiburg2_xyz.bag'
# timestamp ax ay az
1311867169.759421 0.407114 9.088214 -5.951044
1311867169.760549 0.407114 9.088214 -5.951044
1311867169.764194 0.407114 8.705048 -5.951044
1311867169.765170 0.407114 8.705048 -5.951044
1311867169.766426 0.407114 8.705048 -5.951044
1311867169.767462 0.407114 8.705048 -5.951044
1311867169.770554 0.395140 8.513465 -6.142627
1311867169.771517 0.395140 8.513465 -6.142627
1311867169.775168 0.407114 8.321882 -5.759461
1311867169.776173 0.407114 8.321882 -5.759461
1311867169.779430 0.371192 7.986612 -5.472087
1311867169.780433 0.371192 7.986612 -5.472087
1311867169.784040 0.119739 8.130300 -4.993129
1311867169.785165 0.119739 8.130300 -4.993129
1311867169.786420 0.119739 8.130300 -4.993129
1311867169.787446 0.119739 8.130300 -4.993129
1311867169.790554 0.023948 8.321882 -4.801547
1311867169.791556 0.023948 8.321882 -4.801547
1311867169.795208 0.023948 8.297935 -4.705755
1311867169.796179 0.023948 8.297935 -4.705755
1311867169.799429 0.023948 8.273987 -4.322589
1311867169.800552 0.023948 8.273987 -4.322589
1311867169.804032 0.023948 8.513465 -4.035215
1311867169.805196 0.023948 8.513465 -4.035215
1311867169.806415 0.023948 8.513465 -4.035215
1311867169.807422 0.023948 8.513465 -4.035215
1311867169.810573 0.227505 8.657153 -3.843632
1311867169.811569 0.227505 8.657153 -3.843632
1311867169.815179 0.407114 8.752944 -3.472440
1311867169.816175 0.407114 8.752944 -3.472440
1311867169.819421 0.227505 8.705048 -3.412571
1311867169.820428 0.227505 8.705048 -3.412571
1311867169.822042 0.227505 8.705048 -3.412571
1311867169.825321 0.407114 8.417674 -3.077300
1311867169.826294 0.407114 8.417674 -3.077300
1311867169.829449 0.323296 8.417674 -2.789926
1311867169.830427 0.323296 8.417674 -2.789926
1311867169.834059 0.323296 8.513465 -2.694135
1311867169.835027 0.323296 8.513465 -2.694135
1311867169.836308 0.323296 8.513465 -2.694135
1311867169.837310 0.323296 8.513465 -2.694135
1311867169.840434 0.371192 8.705048 -2.981509
1311867169.841556 0.371192 8.705048 -2.981509
1311867169.845175 0.323296 8.609257 -3.364675
1311867169.846189 0.323296 8.609257 -3.364675
1311867169.849455 0.395140 8.705048 -3.268883
1311867169.850437 0.395140 8.705048 -3.268883
1311867169.854049 0.431062 8.705048 -3.460466
1311867169.855093 0.431062 8.705048 -3.460466
1311867169.856332 0.431062 8.705048 -3.460466
1311867169.857298 0.431062 8.705048 -3.460466
1311867169.860581 0.598697 8.800840 -3.843632
1311867169.861562 0.598697 8.800840 -3.843632
1311867169.865204 0.706462 8.705048 -4.131006
1311867169.866185 0.706462 8.705048 -4.131006
1311867169.869436 0.802253 8.513465 -4.418381
1311867169.870576 0.802253 8.513465 -4.418381
1311867169.874202 0.886071 8.130300 -4.705755
1311867169.875184 0.886071 8.130300 -4.705755
1311867169.876427 0.886071 8.130300 -4.705755
1311867169.877441 0.886071 8.130300 -4.705755
1311867169.880548 0.993836 7.555551 -5.041025
1311867169.881561 0.993836 7.555551 -5.041025
1311867169.885184 1.089628 7.268176 -5.184712
1311867169.886314 1.089628 7.268176 -5.184712
1311867169.889451 1.161471 7.076594 -4.993129
1311867169.890438 1.161471 7.076594 -4.993129
1311867169.894064 1.089628 6.980802 -4.993129
1311867169.895045 1.089628 6.980802 -4.993129
1311867169.896356 1.089628 6.980802 -4.993129
1311867169.897315 1.089628 6.980802 -4.993129
1311867169.900579 1.137524 6.813167 -4.897338
1311867169.901548 1.137524 6.813167 -4.897338
1311867169.905065 0.993836 6.693428 -4.993129
1311867169.906204 0.993836 6.693428 -4.993129
1311867169.909463 0.993836 6.693428 -4.514172
1311867169.910424 0.993836 6.693428 -4.514172
1311867169.911946 0.993836 6.693428 -4.514172
1311867169.913035 0.993836 6.693428 -4.514172
1311867169.916310 0.838175 7.076594 -4.418381
1311867169.917443 0.838175 7.076594 -4.418381
1311867169.920582 0.802253 7.507655 -4.418381
1311867169.921581 0.802253 7.507655 -4.418381
1311867169.925203 1.089628 7.842925 -4.322589
1311867169.926207 1.089628 7.842925 -4.322589
1311867169.929410 1.185419 7.986612 -4.238772
1311867169.930453 1.185419 7.986612 -4.238772
1311867169.933712 1.365028 8.130300 -4.322589
1311867169.935063 1.365028 8.130300 -4.322589
1311867169.936312 1.365028 8.130300 -4.322589
1311867169.937303 1.365028 8.130300 -4.322589
1311867169.940564 1.472794 8.321882 -4.609964
1311867169.941659 1.472794 8.321882 -4.609964
1311867169.945209 1.365028 8.273987 -5.041025
1311867169.946163 1.365028 8.273987 -5.041025
1311867169.949454 1.365028 8.034508 -5.352347
1311867169.950584 1.365028 8.034508 -5.352347
1311867169.954039 1.365028 7.842925 -5.567878
1311867169.955186 1.365028 7.842925 -5.567878
1311867169.956314 1.365028 7.842925 -5.567878
1311867169.957457 1.365028 7.842925 -5.567878
1311867169.960555 1.472794 7.459759 -5.759461
1311867169.961628 1.472794 7.459759 -5.759461
1311867169.965208 1.365028 7.268176 -5.855253
1311867169.966383 1.365028 7.268176 -5.855253
1311867169.969458 1.365028 7.459759 -5.759461
1311867169.970449 1.365028 7.459759 -5.759461
1311867169.974074 1.365028 7.363968 -5.855253
1311867169.975058 1.365028 7.363968 -5.855253
1311867169.976348 1.365028 7.363968 -5.855253
1311867169.977488 1.365028 7.363968 -5.855253
1311867169.980438 1.556611 7.363968 -5.855253
1311867169.981563 1.556611 7.363968 -5.855253
1311867169.985213 1.556611 7.459759 -5.807357
1311867169.986241 1.556611 7.459759 -5.807357
1311867169.989460 1.556611 7.555551 -5.951044
1311867169.990458 1.556611 7.555551 -5.951044
1311867169.993714 1.269237 7.603447 -6.094731
1311867169.994973 1.269237 7.603447 -6.094731
1311867169.996318 1.269237 7.603447 -6.094731
1311867169.997338 1.269237 7.603447 -6.094731
1311867170.000445 1.221341 7.747134 -5.951044
1311867170.001594 1.221341 7.747134 -5.951044
1311867170.005231 1.089628 7.842925 -5.759461
1311867170.006202 1.089628 7.842925 -5.759461
1311867170.009445 1.173445 7.938717 -5.759461
1311867170.010432 1.173445 7.938717 -5.759461
1311867170.011947 1.173445 7.938717 -5.759461
1311867170.013045 1.173445 7.938717 -5.759461
1311867170.016313 0.993836 8.130300 -5.759461
1311867170.017319 0.993836 8.130300 -5.759461
1311867170.020584 0.993836 7.986612 -5.855253
1311867170.021569 0.993836 7.986612 -5.855253
1311867170.025210 0.993836 8.034508 -5.759461
1311867170.026177 0.993836 8.034508 -5.759461
1311867170.029469 0.802253 8.130300 -5.759461
1311867170.030466 0.802253 8.130300 -5.759461
1311867170.034050 0.802253 7.986612 -5.567878
1311867170.035066 0.802253 7.986612 -5.567878
1311867170.036376 0.802253 7.986612 -5.567878
1311867170.037350 0.802253 7.986612 -5.567878
1311867170.040446 0.790279 7.938717 -5.376295
1311867170.041590 0.790279 7.938717 -5.376295
1311867170.045093 0.706462 7.842925 -5.184712
1311867170.046214 0.706462 7.842925 -5.184712
1311867170.049444 0.778306 7.555551 -4.993129
1311867170.050466 0.778306 7.555551 -4.993129
1311867170.054062 0.598697 7.555551 -4.801547
1311867170.055063 0.598697 7.555551 -4.801547
1311867170.056294 0.598697 7.555551 -4.801547
1311867170.057324 0.598697 7.555551 -4.801547
1311867170.060440 0.371192 7.507655 -4.609964
1311867170.061621 0.371192 7.507655 -4.609964
1311867170.065067 0.227505 7.651342 -4.609964
1311867170.066252 0.227505 7.651342 -4.609964
1311867170.069342 0.023948 7.938717 -4.514172
1311867170.070446 0.023948 7.938717 -4.514172
1311867170.071699 0.023948 7.938717 -4.514172
1311867170.075197 0.023948 8.034508 -4.238772
1311867170.076216 0.023948 8.034508 -4.238772
1311867170.079468 0.023948 8.417674 -4.609964
1311867170.080430 0.023948 8.417674 -4.609964
1311867170.084087 0.227505 8.800840 -4.609964
1311867170.085069 0.227505 8.800840 -4.609964
1311867170.086327 0.227505 8.800840 -4.609964
1311867170.087309 0.227505 8.800840 -4.609964
1311867170.090549 0.407114 8.896631 -4.993129
1311867170.091590 0.407114 8.896631 -4.993129
1311867170.095185 0.323296 8.896631 -5.184712
1311867170.096216 0.323296 8.896631 -5.184712
1311867170.099447 0.323296 8.896631 -5.759461
1311867170.100588 0.323296 8.896631 -5.759461
1311867170.104061 0.023948 8.752944 -5.759461
1311867170.105192 0.023948 8.752944 -5.759461
1311867170.106431 0.023948 8.752944 -5.759461
1311867170.107423 0.023948 8.752944 -5.759461
1311867170.110578 0.227505 8.417674 -5.855253
1311867170.111578 0.227505 8.417674 -5.855253
1311867170.115193 0.227505 8.321882 -5.759461
1311867170.116183 0.227505 8.321882 -5.759461
1311867170.119444 0.407114 8.273987 -5.759461
1311867170.120451 0.407114 8.273987 -5.759461
1311867170.124061 0.407114 8.226091 -5.376295
1311867170.125066 0.407114 8.226091 -5.376295
1311867170.126425 0.407114 8.226091 -5.376295
1311867170.127464 0.407114 8.226091 -5.376295
1311867170.130594 0.455009 8.130300 -5.184712
1311867170.131562 0.455009 8.130300 -5.184712
1311867170.135200 0.706462 8.130300 -4.897338
1311867170.136222 0.706462 8.130300 -4.897338
1311867170.139450 0.802253 7.962665 -4.705755
1311867170.140449 0.802253 7.962665 -4.705755
1311867170.142082 0.802253 7.962665 -4.705755
1311867170.145200 0.993836 8.034508 -4.705755
1311867170.146190 0.993836 8.034508 -4.705755
1311867170.149437 0.993836 8.226091 -4.609964
1311867170.150436 0.993836 8.226091 -4.609964
1311867170.154078 0.802253 8.226091 -4.897338
1311867170.155191 0.802253 8.226091 -4.897338
1311867170.156290 0.802253 8.226091 -4.897338
1311867170.157472 0.802253 8.226091 -4.897338
1311867170.160567 0.886071 8.130300 -5.088921
1311867170.161598 0.886071 8.130300 -5.088921
1311867170.165073 0.838175 8.034508 -5.184712
1311867170.166177 0.838175 8.034508 -5.184712
1311867170.169328 0.838175 8.130300 -5.376295
1311867170.170455 0.838175 8.130300 -5.376295
1311867170.171720 0.838175 8.130300 -5.376295
1311867170.173068 0.838175 8.130300 -5.376295
1311867170.176351 0.802253 7.938717 -5.472087
1311867170.177323 0.802253 7.938717 -5.472087
1311867170.180444 0.790279 8.034508 -5.424191
1311867170.181562 0.790279 8.034508 -5.424191
1311867170.185074 0.502905 8.226091 -5.567878
1311867170.186245 0.502905 8.226091 -5.567878
1311867170.189331 0.455009 8.417674 -5.759461
1311867170.190472 0.455009 8.417674 -5.759461
1311867170.191566 0.455009 8.417674 -5.759461
1311867170.192701 0.455009 8.417674 -5.759461
1311867170.196198 0.598697 8.705048 -5.663670
1311867170.197191 0.598697 8.705048 -5.663670
1311867170.200574 0.598697 8.896631 -5.472087
1311867170.201575 0.598697 8.896631 -5.472087
1311867170.205071 0.802253 8.992423 -5.388269
1311867170.206196 0.802253 8.992423 -5.388269
1311867170.209445 0.814227 9.040318 -5.376295
1311867170.210447 0.814227 9.040318 -5.376295
1311867170.214066 0.993836 8.896631 -5.280504
1311867170.215063 0.993836 8.896631 -5.280504
1311867170.216311 0.993836 8.896631 -5.280504
1311867170.217314 0.993836 8.896631 -5.280504
1311867170.220465 0.886071 8.752944 -5.184712
1311867170.221463 0.886071 8.752944 -5.184712
1311867170.225076 0.778306 8.609257 -5.184712
1311867170.226226 0.778306 8.609257 -5.184712
1311867170.229329 0.802253 8.321882 -5.280504
1311867170.230446 0.802253 8.321882 -5.280504
1311867170.231670 0.802253 8.321882 -5.280504
1311867170.232701 0.802253 8.321882 -5.280504
1311867170.236349 1.173445 8.034508 -5.088921
1311867170.237347 1.173445 8.034508 -5.088921
1311867170.240454 1.185419 7.938717 -4.993129
1311867170.241460 1.185419 7.938717 -4.993129
1311867170.245063 1.365028 7.651342 -5.088921
1311867170.246199 1.365028 7.651342 -5.088921
1311867170.249446 1.269237 7.459759 -5.376295
1311867170.250443 1.269237 7.459759 -5.376295
1311867170.253742 1.365028 7.268176 -5.280504
1311867170.255070 1.365028 7.268176 -5.280504
1311867170.256197 1.365028 7.268176 -5.280504
1311867170.257353 1.365028 7.268176 -5.280504
1311867170.260602 1.137524 7.543577 -5.280504
1311867170.261585 1.137524 7.543577 -5.280504
1311867170.265078 0.993836 7.747134 -5.376295
1311867170.266209 0.993836 7.747134 -5.376295
1311867170.269348 0.993836 7.938717 -5.184712
1311867170.270479 0.993836 7.938717 -5.184712
1311867170.271709 0.993836 7.938717 -5.184712
1311867170.273238 0.993836 7.938717 -5.184712
1311867170.276342 1.089628 8.321882 -4.993129
1311867170.277311 1.089628 8.321882 -4.993129
1311867170.280406 1.173445 8.369778 -4.897338
1311867170.281394 1.173445 8.369778 -4.897338
1311867170.285068 1.161471 8.417674 -4.945234
1311867170.286051 1.161471 8.417674 -4.945234
1311867170.289334 1.185419 8.513465 -4.801547
1311867170.290311 1.185419 8.513465 -4.801547
1311867170.291604 1.185419 8.513465 -4.801547
1311867170.292727 1.185419 8.513465 -4.801547
1311867170.296219 1.089628 8.226091 -4.993129
1311867170.297200 1.089628 8.226091 -4.993129
1311867170.300462 1.137524 7.938717 -4.993129
1311867170.301590 1.137524 7.938717 -4.993129
1311867170.305080 1.185419 7.842925 -4.993129
1311867170.306249 1.185419 7.842925 -4.993129
1311867170.309339 1.269237 7.555551 -4.993129
1311867170.310479 1.269237 7.555551 -4.993129
1311867170.311728 1.269237 7.555551 -4.993129
1311867170.312733 1.269237 7.555551 -4.993129
1311867170.316210 1.365028 7.172385 -4.609964
1311867170.317325 1.365028 7.172385 -4.609964
1311867170.320458 1.472794 7.076594 -4.609964
1311867170.321469 1.472794 7.076594 -4.609964
1311867170.325073 1.556611 6.980802 -4.514172
1311867170.326189 1.556611 6.980802 -4.514172
1311867170.329432 1.652403 6.885011 -4.322589
1311867170.330317 1.652403 6.885011 -4.322589
1311867170.331631 1.652403 6.885011 -4.322589
1311867170.332577 1.652403 6.885011 -4.322589
1311867170.336211 1.556611 6.980802 -4.226798
1311867170.337363 1.556611 6.980802 -4.226798
1311867170.340492 1.556611 7.076594 -4.238772
1311867170.341577 1.556611 7.076594 -4.238772
1311867170.345206 1.472794 6.980802 -4.226798
1311867170.346220 1.472794 6.980802 -4.226798
1311867170.349376 1.520689 7.172385 -4.250746
1311867170.350480 1.520689 7.172385 -4.250746
1311867170.352096 1.520689 7.172385 -4.250746
1311867170.355272 1.472794 7.363968 -4.514172
1311867170.356141 1.472794 7.363968 -4.514172
1311867170.359514 1.556611 7.268176 -4.945234
1311867170.360558 1.556611 7.268176 -4.945234
1311867170.364182 1.556611 7.507655 -4.801547
1311867170.365263 1.556611 7.507655 -4.801547
1311867170.366467 1.556611 7.507655 -4.801547
1311867170.367567 1.556611 7.507655 -4.801547
1311867170.371216 1.604507 7.555551 -5.184712
1311867170.372174 1.604507 7.555551 -5.184712
1311867170.375476 1.760168 7.555551 -5.376295
1311867170.376485 1.760168 7.555551 -5.376295
1311867170.380068 1.604507 7.555551 -5.472087
1311867170.381078 1.604507 7.555551 -5.472087
1311867170.384339 1.939777 7.555551 -5.567878
1311867170.385468 1.939777 7.555551 -5.567878
1311867170.386596 1.939777 7.555551 -5.567878
1311867170.387694 1.939777 7.555551 -5.567878
1311867170.391206 1.903855 7.555551 -5.376295
1311867170.392331 1.903855 7.555551 -5.376295
1311867170.395431 1.760168 7.579499 -5.280504
1311867170.396421 1.760168 7.579499 -5.280504
1311867170.400084 1.556611 7.938717 -5.280504
1311867170.401288 1.556611 7.938717 -5.280504
1311867170.404358 1.365028 7.747134 -4.801547
1311867170.405446 1.365028 7.747134 -4.801547
1311867170.407055 1.365028 7.747134 -4.801547
1311867170.410228 1.269237 7.890821 -4.609964
1311867170.411218 1.269237 7.890821 -4.609964
1311867170.414450 1.185419 8.034508 -4.657859
1311867170.415435 1.185419 8.034508 -4.657859
1311867170.417054 1.185419 8.034508 -4.657859
1311867170.420226 1.185419 8.226091 -4.609964
1311867170.421223 1.185419 8.226091 -4.609964
1311867170.424493 1.137524 8.309909 -4.418381
1311867170.425478 1.137524 8.309909 -4.418381
1311867170.429083 1.137524 8.333856 -4.562068
1311867170.430093 1.137524 8.333856 -4.562068
1311867170.431537 1.137524 8.333856 -4.562068
1311867170.434488 1.185419 8.513465 -4.609964
1311867170.435468 1.185419 8.513465 -4.609964
1311867170.439079 1.185419 8.345830 -4.993129
1311867170.440058 1.185419 8.345830 -4.993129
1311867170.441311 1.185419 8.345830 -4.993129
1311867170.442436 1.185419 8.345830 -4.993129
1311867170.445449 1.161471 8.369778 -5.088921
1311867170.446561 1.161471 8.369778 -5.088921
1311867170.450082 1.089628 8.417674 -5.280504
1311867170.451216 1.089628 8.417674 -5.280504
1311867170.454461 1.089628 8.321882 -5.759461
1311867170.455442 1.089628 8.321882 -5.759461
1311867170.457121 1.089628 8.321882 -5.759461
1311867170.460230 0.802253 8.609257 -5.567878
1311867170.461210 0.802253 8.609257 -5.567878
1311867170.464436 0.886071 8.513465 -5.951044
1311867170.465434 0.886071 8.513465 -5.951044
1311867170.469090 0.886071 8.226091 -5.759461
1311867170.470257 0.886071 8.226091 -5.759461
1311867170.471328 0.886071 8.226091 -5.759461
1311867170.472446 0.886071 8.226091 -5.759461
1311867170.475587 0.993836 8.130300 -5.759461
1311867170.476566 0.993836 8.130300 -5.759461
1311867170.480206 1.185419 7.914769 -5.400243
1311867170.481236 1.185419 7.914769 -5.400243
1311867170.484447 0.993836 7.842925 -5.400243
1311867170.485444 0.993836 7.842925 -5.400243
1311867170.489339 0.993836 7.747134 -5.376295
1311867170.490190 0.993836 7.747134 -5.376295
1311867170.491201 0.993836 7.747134 -5.376295
1311867170.494449 0.993836 7.555551 -4.993129
1311867170.495428 0.993836 7.555551 -4.993129
1311867170.499079 0.838175 7.603447 -4.801547
1311867170.500311 0.838175 7.603447 -4.801547
1311867170.501363 0.838175 7.603447 -4.801547
1311867170.502452 0.838175 7.603447 -4.801547
1311867170.505456 0.993836 7.747134 -4.705755
1311867170.506598 0.993836 7.747134 -4.705755
1311867170.510192 0.993836 7.842925 -4.418381
1311867170.511199 0.993836 7.842925 -4.418381
1311867170.514455 0.790279 7.938717 -4.609964
1311867170.515431 0.790279 7.938717 -4.609964
1311867170.519078 0.790279 8.034508 -4.801547
1311867170.520081 0.790279 8.034508 -4.801547
1311867170.521342 0.790279 8.034508 -4.801547
1311867170.522351 0.790279 8.034508 -4.801547
1311867170.525479 0.706462 8.130300 -4.801547
1311867170.526575 0.706462 8.130300 -4.801547
1311867170.530073 0.802253 8.309909 -4.993129
1311867170.531199 0.802253 8.309909 -4.993129
1311867170.534532 0.814227 8.321882 -5.184712
1311867170.535477 0.814227 8.321882 -5.184712
1311867170.539098 0.886071 8.321882 -5.567878
1311867170.540076 0.886071 8.321882 -5.567878
1311867170.541345 0.886071 8.321882 -5.567878
1311867170.542466 0.886071 8.321882 -5.567878
1311867170.545634 1.137524 7.938717 -5.759461
1311867170.546594 1.137524 7.938717 -5.759461
1311867170.550251 0.993836 7.842925 -6.046835
1311867170.551206 0.993836 7.842925 -6.046835
1311867170.554460 1.173445 7.651342 -6.046835
1311867170.555449 1.173445 7.651342 -6.046835
1311867170.559086 1.173445 7.507655 -5.951044
1311867170.560057 1.173445 7.507655 -5.951044
1311867170.561396 1.173445 7.507655 -5.951044
1311867170.562466 1.173445 7.507655 -5.951044
1311867170.565692 1.089628 7.220281 -6.094731
1311867170.566599 1.089628 7.220281 -6.094731
1311867170.570206 0.993836 7.172385 -5.759461
1311867170.571327 0.993836 7.172385 -5.759461
1311867170.574451 0.993836 7.076594 -5.400243
1311867170.575574 0.993836 7.076594 -5.400243
1311867170.579594 0.886071 7.076594 -5.184712
1311867170.580437 0.886071 7.076594 -5.184712
1311867170.581882 0.886071 7.076594 -5.184712
1311867170.585211 0.802253 7.363968 -5.088921
1311867170.586212 0.802253 7.363968 -5.088921
1311867170.589458 0.754358 7.555551 -4.621938
1311867170.590601 0.754358 7.555551 -4.621938
1311867170.594080 0.431062 7.842925 -4.633912
1311867170.595195 0.431062 7.842925 -4.633912
1311867170.596311 0.431062 7.842925 -4.633912
1311867170.597454 0.431062 7.842925 -4.633912
1311867170.600490 0.598697 7.986612 -4.801547
1311867170.601459 0.598697 7.986612 -4.801547
1311867170.605080 0.455009 8.130300 -5.005103
1311867170.606198 0.455009 8.130300 -5.005103
1311867170.609373 0.778306 8.130300 -5.041025
1311867170.610483 0.778306 8.130300 -5.041025
1311867170.611606 0.778306 8.130300 -5.041025
1311867170.612784 0.778306 8.130300 -5.041025
1311867170.616347 0.502905 7.962665 -5.376295
1311867170.617332 0.502905 7.962665 -5.376295
1311867170.620820 0.502905 7.938717 -5.567878
1311867170.622129 0.502905 7.938717 -5.567878
1311867170.625207 0.598697 7.747134 -5.759461
1311867170.626409 0.598697 7.747134 -5.759461
1311867170.629493 0.598697 7.555551 -5.759461
1311867170.630470 0.598697 7.555551 -5.759461
1311867170.634221 0.802253 7.459759 -5.376295
1311867170.635235 0.802253 7.459759 -5.376295
1311867170.636442 0.802253 7.459759 -5.376295
1311867170.637457 0.802253 7.459759 -5.376295
1311867170.640652 0.838175 7.220281 -5.424191
1311867170.641610 0.838175 7.220281 -5.424191
1311867170.645211 0.886071 7.196333 -5.184712
1311867170.646187 0.886071 7.196333 -5.184712
1311867170.649478 0.802253 7.363968 -4.993129
1311867170.650441 0.802253 7.363968 -4.993129
1311867170.654110 0.790279 7.555551 -4.801547
1311867170.655250 0.790279 7.555551 -4.801547
1311867170.656368 0.790279 7.555551 -4.801547
1311867170.657497 0.790279 7.555551 -4.801547
1311867170.660632 0.598697 7.938717 -4.514172
1311867170.661620 0.598697 7.938717 -4.514172
1311867170.665095 0.502905 8.130300 -4.621938
1311867170.666225 0.502905 8.130300 -4.621938
1311867170.669343 0.706462 8.417674 -4.801547
1311867170.670468 0.706462 8.417674 -4.801547
1311867170.674114 0.598697 8.705048 -4.993129
1311867170.675191 0.598697 8.705048 -4.993129
1311867170.676192 0.598697 8.705048 -4.993129
1311867170.679464 0.802253 8.896631 -5.280504
1311867170.680458 0.802253 8.896631 -5.280504
1311867170.684118 0.802253 8.896631 -5.759461
1311867170.685085 0.802253 8.896631 -5.759461
1311867170.686361 0.802253 8.896631 -5.759461
1311867170.687460 0.802253 8.896631 -5.759461
1311867170.690631 0.802253 8.800840 -6.142627
1311867170.691736 0.802253 8.800840 -6.142627
1311867170.695216 0.814227 8.717022 -6.334210
1311867170.696334 0.814227 8.717022 -6.334210
1311867170.699472 0.886071 8.609257 -6.525793
1311867170.700473 0.886071 8.609257 -6.525793
1311867170.704106 0.886071 8.657153 -6.525793
1311867170.705103 0.886071 8.657153 -6.525793
1311867170.706343 0.886071 8.657153 -6.525793
1311867170.707333 0.886071 8.657153 -6.525793
1311867170.710592 0.802253 8.513465 -6.334210
1311867170.711568 0.802253 8.513465 -6.334210
1311867170.715092 0.802253 8.321882 -6.190523
1311867170.716200 0.802253 8.321882 -6.190523
1311867170.719351 0.706462 8.321882 -6.142627
1311867170.720465 0.706462 8.321882 -6.142627
1311867170.721592 0.706462 8.321882 -6.142627
1311867170.723101 0.706462 8.321882 -6.142627
1311867170.726394 0.598697 8.417674 -5.759461
1311867170.727361 0.598697 8.417674 -5.759461
1311867170.730562 0.598697 8.513465 -5.855253
1311867170.731532 0.598697 8.513465 -5.855253
1311867170.735226 0.502905 8.513465 -5.567878
1311867170.736264 0.502905 8.513465 -5.567878
1311867170.739469 0.706462 8.657153 -5.376295
1311867170.740476 0.706462 8.657153 -5.376295
1311867170.744104 0.706462 8.693074 -5.567878
1311867170.745581 0.706462 8.693074 -5.567878
1311867170.746458 0.706462 8.693074 -5.567878
1311867170.747470 0.706462 8.693074 -5.567878
1311867170.750611 0.754358 8.609257 -5.472087
1311867170.751606 0.754358 8.609257 -5.472087
1311867170.755095 0.790279 8.609257 -5.376295
1311867170.756212 0.790279 8.609257 -5.376295
1311867170.759502 0.802253 8.513465 -5.759461
1311867170.760476 0.802253 8.513465 -5.759461
1311867170.761737 0.802253 8.513465 -5.759461
1311867170.763079 0.802253 8.513465 -5.759461
1311867170.766345 0.993836 8.321882 -5.771435
1311867170.767398 0.993836 8.321882 -5.771435
1311867170.770637 0.993836 8.034508 -5.951044
1311867170.771608 0.993836 8.034508 -5.951044
1311867170.775230 0.838175 7.926743 -6.142627
1311867170.776325 0.838175 7.926743 -6.142627
1311867170.779468 0.886071 7.747134 -5.951044
1311867170.780460 0.886071 7.747134 -5.951044
1311867170.784096 0.802253 7.747134 -5.783409
1311867170.785889 0.802253 7.747134 -5.783409
1311867170.789130 0.886071 7.747134 -5.711565
1311867170.790087 0.886071 7.747134 -5.711565
1311867170.791089 0.886071 7.747134 -5.711565
1311867170.794480 0.814227 7.747134 -5.472087
1311867170.795459 0.814227 7.747134 -5.472087
1311867170.799137 0.802253 7.890821 -5.376295
1311867170.800104 0.802253 7.890821 -5.376295
1311867170.801376 0.802253 7.890821 -5.376295
1311867170.802479 0.802253 7.890821 -5.376295
1311867170.805611 0.790279 8.034508 -5.184712
1311867170.806577 0.790279 8.034508 -5.184712
1311867170.810256 0.754358 8.130300 -5.184712
1311867170.811238 0.754358 8.130300 -5.184712
1311867170.814502 0.778306 8.034508 -5.376295
1311867170.815494 0.778306 8.034508 -5.376295
1311867170.817149 0.778306 8.034508 -5.376295
1311867170.820260 0.778306 7.986612 -5.280504
1311867170.821252 0.778306 7.986612 -5.280504
1311867170.824474 0.598697 8.130300 -5.328400
1311867170.825480 0.598697 8.130300 -5.328400
1311867170.829087 0.706462 8.130300 -5.280504
1311867170.830089 0.706462 8.130300 -5.280504
1311867170.831094 0.706462 8.130300 -5.280504
1311867170.834485 0.598697 8.226091 -5.376295
1311867170.835529 0.598697 8.226091 -5.376295
1311867170.839121 0.802253 8.226091 -5.328400
1311867170.840086 0.802253 8.226091 -5.328400
1311867170.841083 0.802253 8.226091 -5.328400
1311867170.844563 0.802253 8.034508 -5.376295
1311867170.845486 0.802253 8.034508 -5.376295
1311867170.849139 0.802253 7.938717 -5.352347
1311867170.850207 0.802253 7.938717 -5.352347
1311867170.851216 0.802253 7.938717 -5.352347
1311867170.854488 0.993836 7.938717 -5.376295
1311867170.855472 0.993836 7.938717 -5.376295
1311867170.859119 0.993836 7.747134 -5.472087
1311867170.860101 0.993836 7.747134 -5.472087
1311867170.861376 0.993836 7.747134 -5.472087
1311867170.862373 0.993836 7.747134 -5.472087
1311867170.865597 0.838175 7.890821 -5.184712
1311867170.866593 0.838175 7.890821 -5.184712
1311867170.870261 1.089628 7.890821 -5.184712
1311867170.871244 1.089628 7.890821 -5.184712
1311867170.874527 1.089628 7.651342 -5.280504
1311867170.875509 1.089628 7.651342 -5.280504
1311867170.879102 1.185419 7.747134 -5.184712
1311867170.880082 1.185419 7.747134 -5.184712
1311867170.881334 1.185419 7.747134 -5.184712
1311867170.882333 1.185419 7.747134 -5.184712
1311867170.885619 1.089628 7.603447 -5.184712
1311867170.886654 1.089628 7.603447 -5.184712
1311867170.890240 1.173445 7.579499 -5.376295
1311867170.891220 1.173445 7.579499 -5.376295
1311867170.894498 0.993836 7.603447 -5.364321
1311867170.895468 0.993836 7.603447 -5.364321
1311867170.896728 0.993836 7.603447 -5.364321
1311867170.897738 0.993836 7.603447 -5.364321
1311867170.901302 1.173445 7.747134 -5.472087
1311867170.902371 1.173445 7.747134 -5.472087
1311867170.905561 1.089628 7.926743 -5.472087
1311867170.906619 1.089628 7.926743 -5.472087
1311867170.910256 1.173445 7.938717 -5.783409
1311867170.911212 1.173445 7.938717 -5.783409
1311867170.914480 0.993836 7.950691 -5.759461
1311867170.915461 0.993836 7.950691 -5.759461
1311867170.919138 0.886071 8.034508 -5.759461
1311867170.920123 0.886071 8.034508 -5.759461
1311867170.921105 0.886071 8.034508 -5.759461
1311867170.924518 0.802253 8.130300 -5.855253
1311867170.925478 0.802253 8.130300 -5.855253
1311867170.929177 0.802253 8.130300 -5.735513
1311867170.930084 0.802253 8.130300 -5.735513
1311867170.931355 0.802253 8.130300 -5.735513
1311867170.932375 0.802253 8.130300 -5.735513
1311867170.935637 0.802253 8.226091 -5.376295
1311867170.936600 0.802253 8.226091 -5.376295
1311867170.940253 0.778306 8.273987 -5.280504
1311867170.941270 0.778306 8.273987 -5.280504
1311867170.944502 0.790279 8.273987 -5.088921
1311867170.945485 0.790279 8.273987 -5.088921
1311867170.949266 0.598697 8.226091 -4.993129
1311867170.950217 0.598697 8.226091 -4.993129
1311867170.951217 0.598697 8.226091 -4.993129
1311867170.954508 0.502905 8.034508 -4.801547
1311867170.955481 0.502905 8.034508 -4.801547
1311867170.959183 0.455009 7.842925 -4.418381
1311867170.960104 0.455009 7.842925 -4.418381
1311867170.961368 0.455009 7.842925 -4.418381
1311867170.962439 0.455009 7.842925 -4.418381
1311867170.965611 0.598697 7.842925 -4.322589
1311867170.966615 0.598697 7.842925 -4.322589
1311867170.970273 0.802253 7.747134 -4.250746
1311867170.971250 0.802253 7.747134 -4.250746
1311867170.974482 0.802253 7.747134 -4.562068
1311867170.975461 0.802253 7.747134 -4.562068
1311867170.979109 0.802253 7.651342 -4.609964
1311867170.980090 0.802253 7.651342 -4.609964
1311867170.981359 0.802253 7.651342 -4.609964
1311867170.982343 0.802253 7.651342 -4.609964
1311867170.985600 0.802253 7.651342 -5.184712
1311867170.986600 0.802253 7.651342 -5.184712
1311867170.990248 0.502905 7.747134 -5.376295
1311867170.991255 0.502905 7.747134 -5.376295
1311867170.994540 0.598697 7.842925 -5.663670
1311867170.995610 0.598697 7.842925 -5.663670
1311867170.999133 0.706462 7.842925 -5.759461
1311867171.000233 0.706462 7.842925 -5.759461
1311867171.002040 0.706462 7.842925 -5.759461
1311867171.004491 0.502905 7.914769 -5.807357
1311867171.005486 0.502905 7.914769 -5.807357
1311867171.009263 0.598697 7.842925 -5.807357
1311867171.010130 0.598697 7.842925 -5.807357
1311867171.011345 0.598697 7.842925 -5.807357
1311867171.012381 0.598697 7.842925 -5.807357
1311867171.015611 0.502905 7.986612 -5.567878
1311867171.016602 0.502905 7.986612 -5.567878
1311867171.020275 0.407114 8.034508 -5.663670
1311867171.021231 0.407114 8.034508 -5.663670
1311867171.024500 0.407114 8.034508 -5.376295
1311867171.025485 0.407114 8.034508 -5.376295
1311867171.029205 0.395140 8.273987 -5.280504
1311867171.030235 0.395140 8.273987 -5.280504
1311867171.031374 0.395140 8.273987 -5.280504
1311867171.032500 0.395140 8.273987 -5.280504
1311867171.035630 0.227505 8.321882 -4.609964
1311867171.036618 0.227505 8.321882 -4.609964
1311867171.040267 0.407114 8.321882 -4.514172
1311867171.041229 0.407114 8.321882 -4.514172
1311867171.044482 0.407114 8.321882 -4.178902
1311867171.045482 0.407114 8.321882 -4.178902
1311867171.049125 0.407114 8.369778 -4.131006
1311867171.050224 0.407114 8.369778 -4.131006
1311867171.051362 0.407114 8.369778 -4.131006
1311867171.052488 0.407114 8.369778 -4.131006
1311867171.055668 0.407114 8.321882 -3.939424
1311867171.056631 0.407114 8.321882 -3.939424
1311867171.060247 0.407114 8.226091 -4.035215
1311867171.061229 0.407114 8.226091 -4.035215
1311867171.064534 0.706462 7.986612 -4.202850
1311867171.065530 0.706462 7.986612 -4.202850
1311867171.069282 0.598697 7.962665 -4.418381
1311867171.070250 0.598697 7.962665 -4.418381
1311867171.071236 0.598697 7.962665 -4.418381
1311867171.074488 0.802253 7.890821 -4.633912
1311867171.075472 0.802253 7.890821 -4.633912
1311867171.079114 0.814227 7.651342 -4.705755
1311867171.080096 0.814227 7.651342 -4.705755
1311867171.081392 0.814227 7.651342 -4.705755
1311867171.082466 0.814227 7.651342 -4.705755
1311867171.085624 0.778306 7.363968 -5.005103
1311867171.086754 0.778306 7.363968 -5.005103
1311867171.090368 0.598697 7.459759 -5.376295
1311867171.091378 0.598697 7.459759 -5.376295
1311867171.094453 0.455009 7.555551 -5.663670
1311867171.095517 0.455009 7.555551 -5.663670
1311867171.099162 0.455009 7.651342 -5.759461
1311867171.100122 0.455009 7.651342 -5.759461
1311867171.101424 0.455009 7.651342 -5.759461
1311867171.102371 0.455009 7.651342 -5.759461
1311867171.105645 0.502905 7.747134 -5.328400
1311867171.106636 0.502905 7.747134 -5.328400
1311867171.110277 0.598697 7.938717 -5.184712
1311867171.111258 0.598697 7.938717 -5.184712
1311867171.114481 0.598697 8.130300 -5.041025
1311867171.115592 0.598697 8.130300 -5.041025
1311867171.119119 0.502905 8.273987 -4.897338
1311867171.120236 0.502905 8.273987 -4.897338
1311867171.121370 0.502905 8.273987 -4.897338
1311867171.122509 0.502905 8.273987 -4.897338
1311867171.125508 0.502905 8.297935 -4.801547
1311867171.126668 0.502905 8.297935 -4.801547
1311867171.130165 0.419088 8.130300 -4.609964
1311867171.131238 0.419088 8.130300 -4.609964
1311867171.134425 0.407114 7.938717 -4.418381
1311867171.135386 0.407114 7.938717 -4.418381
1311867171.136628 0.407114 7.938717 -4.418381
1311867171.137618 0.407114 7.938717 -4.418381
1311867171.141251 0.407114 7.747134 -4.226798
1311867171.142261 0.407114 7.747134 -4.226798
1311867171.145507 0.323296 7.603447 -4.035215
1311867171.146479 0.323296 7.603447 -4.035215
1311867171.149742 0.407114 7.747134 -4.226798
1311867171.151108 0.407114 7.747134 -4.226798
1311867171.154370 0.598697 7.747134 -4.035215
1311867171.155371 0.598697 7.747134 -4.035215
1311867171.156623 0.598697 7.747134 -4.035215
1311867171.157657 0.598697 7.747134 -4.035215
1311867171.161265 0.598697 7.651342 -4.226798
1311867171.162398 0.598697 7.651342 -4.226798
1311867171.165513 0.754358 7.555551 -4.274694
1311867171.166635 0.754358 7.555551 -4.274694
1311867171.170128 0.598697 7.363968 -4.322589
1311867171.171278 0.598697 7.363968 -4.322589
1311867171.174392 0.754358 7.363968 -4.609964
1311867171.175507 0.754358 7.363968 -4.609964
1311867171.176634 0.754358 7.363968 -4.609964
1311867171.177737 0.754358 7.363968 -4.609964
1311867171.181379 0.802253 7.363968 -4.993129
1311867171.182358 0.802253 7.363968 -4.993129
1311867171.185491 0.886071 7.363968 -4.993129
1311867171.186609 0.886071 7.363968 -4.993129
1311867171.190267 0.802253 7.363968 -5.184712
1311867171.191453 0.802253 7.363968 -5.184712
1311867171.194598 0.993836 7.363968 -5.364321
1311867171.195528 0.993836 7.363968 -5.364321
1311867171.199204 0.802253 7.268176 -5.184712
1311867171.200077 0.802253 7.268176 -5.184712
1311867171.201380 0.802253 7.268176 -5.184712
1311867171.202383 0.802253 7.268176 -5.184712
1311867171.205625 0.802253 7.363968 -4.969182
1311867171.206606 0.802253 7.363968 -4.969182
1311867171.210239 0.838175 7.363968 -4.801547
1311867171.211270 0.838175 7.363968 -4.801547
1311867171.214532 0.802253 7.531603 -4.657859
1311867171.215477 0.802253 7.531603 -4.657859
1311867171.219125 0.802253 7.603447 -4.514172
1311867171.220109 0.802253 7.603447 -4.514172
1311867171.221386 0.802253 7.603447 -4.514172
1311867171.222505 0.802253 7.603447 -4.514172
1311867171.225621 0.802253 7.651342 -4.178902
1311867171.226637 0.802253 7.651342 -4.178902
1311867171.230239 0.802253 7.747134 -4.226798
1311867171.231247 0.802253 7.747134 -4.226798
1311867171.234377 0.814227 7.890821 -4.035215
1311867171.235500 0.814227 7.890821 -4.035215
1311867171.236637 0.814227 7.890821 -4.035215
1311867171.237759 0.814227 7.890821 -4.035215
1311867171.241242 0.993836 7.747134 -4.226798
1311867171.242390 0.993836 7.747134 -4.226798
1311867171.245635 0.993836 7.747134 -4.514172
1311867171.246612 0.993836 7.747134 -4.514172
1311867171.250253 0.993836 7.842925 -4.897338
1311867171.251243 0.993836 7.842925 -4.897338
1311867171.254522 1.089628 7.747134 -4.945234
1311867171.255521 1.089628 7.747134 -4.945234
1311867171.259131 0.993836 7.890821 -5.041025
1311867171.260138 0.993836 7.890821 -5.041025
1311867171.261392 0.993836 7.890821 -5.041025
1311867171.262607 0.993836 7.890821 -5.041025
1311867171.265625 0.993836 7.938717 -5.184712
1311867171.266746 0.993836 7.938717 -5.184712
1311867171.270293 0.886071 7.747134 -5.376295
1311867171.271286 0.886071 7.747134 -5.376295
1311867171.277364 1.173445 7.890821 -5.352347
1311867171.279119 1.089628 7.914769 -5.376295
1311867171.280113 1.089628 7.914769 -5.376295
1311867171.281392 1.089628 7.914769 -5.376295
1311867171.282361 1.089628 7.914769 -5.376295
1311867171.285623 0.993836 7.938717 -5.759461
1311867171.286615 0.993836 7.938717 -5.759461
1311867171.290261 1.161471 7.938717 -5.567878
1311867171.291261 1.161471 7.938717 -5.567878
1311867171.294563 1.137524 7.926743 -5.759461
1311867171.295605 1.137524 7.926743 -5.759461
1311867171.299094 1.185419 7.890821 -5.759461
1311867171.300073 1.185419 7.890821 -5.759461
1311867171.301351 1.185419 7.890821 -5.759461
1311867171.302384 1.185419 7.890821 -5.759461
1311867171.305636 1.089628 7.938717 -5.711565
1311867171.306682 1.089628 7.938717 -5.711565
1311867171.310259 1.089628 8.226091 -5.567878
1311867171.311239 1.089628 8.226091 -5.567878
1311867171.314499 1.089628 8.369778 -5.472087
1311867171.315488 1.089628 8.369778 -5.472087
1311867171.319124 0.993836 8.513465 -5.280504
1311867171.320165 0.993836 8.513465 -5.280504
1311867171.321376 0.993836 8.513465 -5.280504
1311867171.322490 0.993836 8.513465 -5.280504
1311867171.325606 1.089628 8.705048 -5.376295
1311867171.326591 1.089628 8.705048 -5.376295
1311867171.330266 1.137524 8.800840 -5.376295
1311867171.331319 1.137524 8.800840 -5.376295
1311867171.334382 1.185419 8.717022 -5.184712
1311867171.335513 1.185419 8.717022 -5.184712
1311867171.336751 1.185419 8.717022 -5.184712
1311867171.337767 1.185419 8.717022 -5.184712
1311867171.341413 1.185419 8.896631 -5.280504
1311867171.342390 1.185419 8.896631 -5.280504
1311867171.345501 1.269237 8.705048 -5.280504
1311867171.346611 1.269237 8.705048 -5.280504
1311867171.350181 1.365028 8.705048 -5.472087
1311867171.351288 1.365028 8.705048 -5.472087
1311867171.354509 1.365028 8.705048 -5.759461
1311867171.355494 1.365028 8.705048 -5.759461
1311867171.356771 1.365028 8.705048 -5.759461
1311867171.358178 1.365028 8.705048 -5.759461
1311867171.361373 1.269237 8.345830 -5.951044
1311867171.362417 1.269237 8.345830 -5.951044
1311867171.365657 1.365028 8.273987 -6.334210
1311867171.366643 1.365028 8.273987 -6.334210
1311867171.370332 1.472794 8.034508 -6.334210
1311867171.371298 1.472794 8.034508 -6.334210
1311867171.374597 1.556611 7.938717 -6.525793
1311867171.375512 1.556611 7.938717 -6.525793
1311867171.379151 1.556611 7.555551 -6.334210
1311867171.380124 1.556611 7.555551 -6.334210
1311867171.381432 1.556611 7.555551 -6.334210
1311867171.382406 1.556611 7.555551 -6.334210
1311867171.385632 1.365028 7.531603 -6.717376
1311867171.386785 1.365028 7.531603 -6.717376
1311867171.390257 1.365028 7.555551 -6.334210
1311867171.391413 1.365028 7.555551 -6.334210
1311867171.394562 1.161471 7.651342 -6.430001
1311867171.395491 1.161471 7.651342 -6.430001
1311867171.399171 0.814227 7.926743 -6.094731
1311867171.400138 0.814227 7.926743 -6.094731
1311867171.401434 0.814227 7.926743 -6.094731
1311867171.402510 0.814227 7.926743 -6.094731
1311867171.405655 0.802253 8.130300 -5.567878
1311867171.406760 0.802253 8.130300 -5.567878
1311867171.410418 0.802253 8.417674 -5.376295
1311867171.411388 0.802253 8.417674 -5.376295
1311867171.414638 0.778306 8.705048 -4.981156
1311867171.415627 0.778306 8.705048 -4.981156
1311867171.419280 0.706462 8.705048 -4.801547
1311867171.420253 0.706462 8.705048 -4.801547
1311867171.421534 0.706462 8.705048 -4.801547
1311867171.422539 0.706462 8.705048 -4.801547
1311867171.425534 0.598697 8.705048 -4.657859
1311867171.426684 0.598697 8.705048 -4.657859
1311867171.430165 0.407114 8.693074 -4.621938
1311867171.431252 0.407114 8.693074 -4.621938
1311867171.434535 0.407114 8.609257 -4.609964
1311867171.435411 0.407114 8.609257 -4.609964
1311867171.436647 0.407114 8.609257 -4.609964
1311867171.437655 0.407114 8.609257 -4.609964
1311867171.441270 0.407114 8.513465 -4.609964
1311867171.442247 0.407114 8.513465 -4.609964
1311867171.445524 0.227505 8.369778 -4.621938
1311867171.446505 0.227505 8.369778 -4.621938
1311867171.450130 0.227505 8.321882 -4.657859
1311867171.451222 0.227505 8.321882 -4.657859
1311867171.454397 0.227505 8.321882 -4.226798
1311867171.455392 0.227505 8.321882 -4.226798
1311867171.456640 0.227505 8.321882 -4.226798
1311867171.457634 0.227505 8.321882 -4.226798
1311867171.461298 0.455009 8.130300 -4.586016
1311867171.462530 0.455009 8.130300 -4.586016
1311867171.465526 0.502905 8.226091 -4.657859
1311867171.466652 0.502905 8.226091 -4.657859
1311867171.470303 0.598697 8.309909 -4.945234
1311867171.471284 0.598697 8.309909 -4.945234
1311867171.474543 0.790279 8.226091 -5.088921
1311867171.475501 0.790279 8.226091 -5.088921
1311867171.476749 0.790279 8.226091 -5.088921
1311867171.477784 0.790279 8.226091 -5.088921
1311867171.481410 0.754358 7.986612 -5.567878
1311867171.482507 0.754358 7.986612 -5.567878
1311867171.485642 0.754358 7.938717 -5.711565
1311867171.486641 0.754358 7.938717 -5.711565
1311867171.490278 0.790279 7.890821 -5.855253
1311867171.491274 0.790279 7.890821 -5.855253
1311867171.494411 0.598697 7.914769 -5.747487
1311867171.495509 0.598697 7.914769 -5.747487
1311867171.496758 0.598697 7.914769 -5.747487
1311867171.497656 0.598697 7.914769 -5.747487
1311867171.501728 0.754358 7.938717 -5.352347
1311867171.504537 0.802253 7.938717 -5.017077
1311867171.505523 0.802253 7.938717 -5.017077
1311867171.509158 0.706462 7.938717 -4.897338
1311867171.510151 0.706462 7.938717 -4.897338
1311867171.511472 0.706462 7.938717 -4.897338
1311867171.512423 0.706462 7.938717 -4.897338
1311867171.515635 0.598697 7.747134 -4.586016
1311867171.516710 0.598697 7.747134 -4.586016
1311867171.520264 0.598697 8.321882 -4.238772
1311867171.521291 0.598697 8.321882 -4.238772
1311867171.524546 0.598697 8.034508 -4.250746
1311867171.525524 0.598697 8.034508 -4.250746
1311867171.528779 0.706462 8.034508 -4.226798
1311867171.530136 0.706462 8.034508 -4.226798
1311867171.531801 0.706462 8.034508 -4.226798
1311867171.534473 0.502905 7.986612 -3.939424
1311867171.535528 0.502905 7.986612 -3.939424
1311867171.539148 0.598697 7.938717 -4.178902
1311867171.540133 0.598697 7.938717 -4.178902
1311867171.541415 0.598697 7.938717 -4.178902
1311867171.542542 0.598697 7.938717 -4.178902
1311867171.545529 0.706462 7.890821 -4.035215
1311867171.546586 0.706462 7.890821 -4.035215
1311867171.550143 0.802253 7.926743 -4.250746
1311867171.551253 0.802253 7.926743 -4.250746
1311867171.554446 0.790279 7.914769 -4.418381
1311867171.555573 0.790279 7.914769 -4.418381
1311867171.556643 0.790279 7.914769 -4.418381
1311867171.557783 0.790279 7.914769 -4.418381
1311867171.561444 0.802253 7.938717 -4.897338
1311867171.562598 0.802253 7.938717 -4.897338
1311867171.565562 0.802253 7.938717 -5.005103
1311867171.566681 0.802253 7.938717 -5.005103
1311867171.570282 0.802253 7.938717 -5.376295
1311867171.571285 0.802253 7.938717 -5.376295
1311867171.574544 0.886071 7.938717 -5.400243
1311867171.575530 0.886071 7.938717 -5.400243
1311867171.579156 1.089628 8.034508 -5.472087
1311867171.580144 1.089628 8.034508 -5.472087
1311867171.581449 1.089628 8.034508 -5.472087
1311867171.582526 1.089628 8.034508 -5.472087
1311867171.585643 0.886071 8.226091 -5.759461
1311867171.586637 0.886071 8.226091 -5.759461
1311867171.590319 0.993836 8.226091 -5.771435
1311867171.591300 0.993836 8.226091 -5.771435
1311867171.594785 0.802253 8.226091 -5.855253
1311867171.595654 0.802253 8.226091 -5.855253
1311867171.596766 0.802253 8.226091 -5.855253
1311867171.600288 0.802253 8.273987 -5.759461
1311867171.601287 0.802253 8.273987 -5.759461
1311867171.604530 0.790279 8.226091 -5.567878
1311867171.605536 0.790279 8.226091 -5.567878
1311867171.609186 0.790279 8.321882 -5.280504
1311867171.610169 0.790279 8.321882 -5.280504
1311867171.611392 0.790279 8.321882 -5.280504
1311867171.612384 0.790279 8.321882 -5.280504
1311867171.615650 0.706462 8.273987 -5.041025
1311867171.616635 0.706462 8.273987 -5.041025
1311867171.620524 0.502905 8.273987 -5.005103
1311867171.621392 0.502905 8.273987 -5.005103
1311867171.622521 0.502905 8.273987 -5.005103
1311867171.625537 0.419088 8.297935 -4.801547
1311867171.628608 0.419088 8.297935 -4.801547
1311867171.630306 0.407114 8.321882 -4.993129
1311867171.631269 0.407114 8.321882 -4.993129
1311867171.634556 0.407114 8.513465 -4.897338
1311867171.635563 0.407114 8.513465 -4.897338
1311867171.639180 0.407114 8.609257 -4.993129
1311867171.640152 0.407114 8.609257 -4.993129
1311867171.641394 0.407114 8.609257 -4.993129
1311867171.642499 0.407114 8.609257 -4.993129
1311867171.645500 0.407114 8.896631 -5.017077
1311867171.646659 0.407114 8.896631 -5.017077
1311867171.650270 0.407114 8.896631 -5.328400
1311867171.651259 0.407114 8.896631 -5.328400
1311867171.654552 0.455009 8.896631 -5.280504
1311867171.655549 0.455009 8.896631 -5.280504
1311867171.659191 0.419088 9.040318 -5.280504
1311867171.660141 0.419088 9.040318 -5.280504
1311867171.661448 0.419088 9.040318 -5.280504
1311867171.662550 0.419088 9.040318 -5.280504
1311867171.665658 0.502905 8.800840 -5.376295
1311867171.666689 0.502905 8.800840 -5.376295
1311867171.670283 0.455009 8.705048 -5.376295
1311867171.671313 0.455009 8.705048 -5.376295
1311867171.674556 0.455009 8.705048 -5.424191
1311867171.675515 0.455009 8.705048 -5.424191
1311867171.679178 0.598697 8.321882 -5.376295
1311867171.680272 0.598697 8.321882 -5.376295
1311867171.681415 0.598697 8.321882 -5.376295
1311867171.682534 0.598697 8.321882 -5.376295
1311867171.686720 0.598697 8.130300 -5.352347
1311867171.689098 0.598697 7.938717 -5.376295
1311867171.690146 0.598697 7.938717 -5.376295
1311867171.691155 0.598697 7.938717 -5.376295
1311867171.694604 0.502905 7.962665 -5.376295
1311867171.695521 0.502905 7.962665 -5.376295
1311867171.699159 0.790279 7.938717 -5.280504
1311867171.700177 0.790279 7.938717 -5.280504
1311867171.701401 0.790279 7.938717 -5.280504
1311867171.702490 0.790279 7.938717 -5.280504
1311867171.705544 0.754358 7.950691 -5.376295
1311867171.706660 0.754358 7.950691 -5.376295
1311867171.710184 0.754358 7.938717 -5.376295
1311867171.711136 0.754358 7.938717 -5.376295
1311867171.714408 0.706462 8.034508 -5.376295
1311867171.715388 0.706462 8.034508 -5.376295
1311867171.718847 0.706462 8.034508 -5.376295
1311867171.720156 0.802253 7.938717 -5.376295
1311867171.721751 0.802253 7.938717 -5.376295
1311867171.724430 0.802253 8.034508 -5.567878
1311867171.725418 0.802253 8.034508 -5.567878
1311867171.726683 0.802253 8.034508 -5.567878
1311867171.727638 0.802253 8.034508 -5.567878
1311867171.731331 0.993836 8.130300 -5.424191
1311867171.732299 0.993836 8.130300 -5.424191
1311867171.735668 0.993836 8.130300 -5.376295
1311867171.736636 0.993836 8.130300 -5.376295
1311867171.740153 0.993836 8.130300 -5.376295
1311867171.741278 0.993836 8.130300 -5.376295
1311867171.744518 0.993836 7.938717 -5.280504
1311867171.745524 0.993836 7.938717 -5.280504
1311867171.749183 0.993836 7.842925 -5.328400
1311867171.750286 0.993836 7.842925 -5.328400
1311867171.751285 0.993836 7.842925 -5.328400
1311867171.754577 0.993836 7.747134 -4.993129
1311867171.755565 0.993836 7.747134 -4.993129
1311867171.759195 0.886071 7.747134 -4.945234
1311867171.760205 0.886071 7.747134 -4.945234
1311867171.761492 0.886071 7.747134 -4.945234
1311867171.762530 0.886071 7.747134 -4.945234
1311867171.765589 0.886071 7.914769 -4.897338
1311867171.766656 0.886071 7.914769 -4.897338
1311867171.770280 0.802253 7.938717 -4.418381
1311867171.771279 0.802253 7.938717 -4.418381
1311867171.774529 0.802253 7.842925 -4.609964
1311867171.775523 0.802253 7.842925 -4.609964
1311867171.779156 0.814227 7.950691 -4.609964
1311867171.780133 0.814227 7.950691 -4.609964
1311867171.781362 0.814227 7.950691 -4.609964
1311867171.782360 0.814227 7.950691 -4.609964
1311867171.785483 0.802253 8.130300 -4.633912
1311867171.786608 0.802253 8.130300 -4.633912
1311867171.790231 0.802253 7.986612 -4.609964
1311867171.791222 0.802253 7.986612 -4.609964
1311867171.794482 0.802253 8.130300 -4.705755
1311867171.795561 0.802253 8.130300 -4.705755
1311867171.797129 0.802253 8.130300 -4.705755
1311867171.798224 0.802253 8.130300 -4.705755
1311867171.801451 0.802253 8.226091 -4.993129
1311867171.802427 0.802253 8.226091 -4.993129
1311867171.805531 0.886071 8.130300 -5.088921
1311867171.806642 0.886071 8.130300 -5.088921
1311867171.810292 0.802253 8.130300 -5.424191
1311867171.811275 0.802253 8.130300 -5.424191
1311867171.814567 0.886071 8.130300 -5.400243
1311867171.815557 0.886071 8.130300 -5.400243
1311867171.819174 0.814227 8.130300 -5.472087
1311867171.820288 0.814227 8.130300 -5.472087
1311867171.821286 0.814227 8.130300 -5.472087
1311867171.824553 0.802253 7.938717 -5.759461
1311867171.825549 0.802253 7.938717 -5.759461
1311867171.829174 0.838175 7.890821 -5.472087
1311867171.830284 0.838175 7.890821 -5.472087
1311867171.831401 0.838175 7.890821 -5.472087
1311867171.832421 0.838175 7.890821 -5.472087
1311867171.835676 0.802253 7.938717 -5.388269
1311867171.836688 0.802253 7.938717 -5.388269
1311867171.840293 0.754358 7.938717 -5.184712
1311867171.841308 0.754358 7.938717 -5.184712
1311867171.844433 0.455009 7.986612 -5.184712
1311867171.845553 0.455009 7.986612 -5.184712
1311867171.849162 0.407114 7.962665 -4.993129
1311867171.850292 0.407114 7.962665 -4.993129
1311867171.851273 0.407114 7.962665 -4.993129
1311867171.854544 0.431062 8.130300 -4.621938
1311867171.855531 0.431062 8.130300 -4.621938
1311867171.859167 0.407114 8.273987 -4.514172
1311867171.860156 0.407114 8.273987 -4.514172
1311867171.861437 0.407114 8.273987 -4.514172
1311867171.862558 0.407114 8.273987 -4.514172
1311867171.865604 0.407114 8.130300 -4.418381
1311867171.866683 0.407114 8.130300 -4.418381
1311867171.870172 0.407114 8.130300 -4.514172
1311867171.871185 0.407114 8.130300 -4.514172
1311867171.874437 0.455009 8.034508 -4.514172
1311867171.875420 0.455009 8.034508 -4.514172
1311867171.876666 0.455009 8.034508 -4.514172
1311867171.877669 0.455009 8.034508 -4.514172
1311867171.881330 0.407114 8.130300 -4.969182
1311867171.882409 0.407114 8.130300 -4.969182
1311867171.885550 0.502905 8.130300 -4.993129
1311867171.886664 0.502905 8.130300 -4.993129
1311867171.890164 0.502905 8.130300 -4.993129
1311867171.891165 0.502905 8.130300 -4.993129
1311867171.894417 0.598697 8.034508 -4.993129
1311867171.895549 0.598697 8.034508 -4.993129
1311867171.896658 0.598697 8.034508 -4.993129
1311867171.897781 0.598697 8.034508 -4.993129
1311867171.901289 0.598697 7.950691 -4.993129
1311867171.902271 0.598697 7.950691 -4.993129
1311867171.905550 0.706462 8.130300 -4.945234
1311867171.906829 0.706462 8.130300 -4.945234
1311867171.910161 0.598697 7.938717 -4.993129
1311867171.911143 0.598697 7.938717 -4.993129
1311867171.914415 0.838175 7.747134 -4.801547
1311867171.915396 0.838175 7.747134 -4.801547
1311867171.917279 0.838175 7.747134 -4.801547
1311867171.920138 0.790279 7.603447 -4.801547
1311867171.921129 0.790279 7.603447 -4.801547
1311867171.924385 0.754358 7.555551 -4.657859
1311867171.925429 0.754358 7.555551 -4.657859
1311867171.926684 0.754358 7.555551 -4.657859
1311867171.927789 0.754358 7.555551 -4.657859
1311867171.931306 0.802253 7.603447 -4.621938
1311867171.932442 0.802253 7.603447 -4.621938
1311867171.935674 0.802253 7.651342 -4.418381
1311867171.936684 0.802253 7.651342 -4.418381
1311867171.940177 0.778306 7.651342 -4.418381
1311867171.941161 0.778306 7.651342 -4.418381
1311867171.944407 0.598697 7.747134 -4.609964
1311867171.945421 0.598697 7.747134 -4.609964
1311867171.946656 0.598697 7.747134 -4.609964
1311867171.947789 0.598697 7.747134 -4.609964
1311867171.951418 0.598697 7.890821 -4.993129
1311867171.952470 0.598697 7.890821 -4.993129
1311867171.955941 0.598697 7.747134 -4.993129
1311867171.957193 0.598697 7.747134 -4.993129
1311867171.960297 0.502905 7.842925 -4.993129
1311867171.961304 0.502905 7.842925 -4.993129
1311867171.964456 0.431062 7.938717 -4.993129
1311867171.965558 0.431062 7.938717 -4.993129
1311867171.968685 0.502905 7.986612 -4.993129
1311867171.969708 0.502905 7.986612 -4.993129
1311867171.972361 0.502905 7.986612 -4.993129
1311867171.974566 0.407114 8.321882 -4.801547
1311867171.975553 0.407114 8.321882 -4.801547
1311867171.979177 0.407114 8.321882 -4.705755
1311867171.980314 0.407114 8.321882 -4.705755
1311867171.981292 0.407114 8.321882 -4.705755
1311867171.984582 0.407114 8.345830 -4.609964
1311867171.985539 0.407114 8.345830 -4.609964
1311867171.989372 0.455009 8.369778 -4.705755
1311867171.990292 0.455009 8.369778 -4.705755
1311867171.991292 0.455009 8.369778 -4.705755
1311867171.994553 0.407114 8.513465 -4.609964
1311867171.995558 0.407114 8.513465 -4.609964
1311867171.999175 0.407114 8.513465 -4.801547
1311867172.000222 0.407114 8.513465 -4.801547
1311867172.001485 0.407114 8.513465 -4.801547
1311867172.002455 0.407114 8.513465 -4.801547
1311867172.005631 0.407114 8.417674 -4.945234
1311867172.006692 0.407114 8.417674 -4.945234
1311867172.010330 0.502905 8.321882 -4.993129
1311867172.011283 0.502905 8.321882 -4.993129
1311867172.014545 0.502905 8.321882 -5.005103
1311867172.015530 0.502905 8.321882 -5.005103
1311867172.017167 0.502905 8.321882 -5.005103
1311867172.018182 0.502905 8.321882 -5.005103
1311867172.021431 0.598697 8.034508 -5.280504
1311867172.022559 0.598697 8.034508 -5.280504
1311867172.025550 0.598697 7.938717 -5.280504
1311867172.026668 0.598697 7.938717 -5.280504
1311867172.030170 0.706462 7.938717 -5.088921
1311867172.031404 0.706462 7.938717 -5.088921
1311867172.034578 0.598697 7.842925 -5.184712
1311867172.035572 0.598697 7.842925 -5.184712
1311867172.036683 0.598697 7.842925 -5.184712
1311867172.037804 0.598697 7.842925 -5.184712
1311867172.041333 0.407114 7.842925 -5.424191
1311867172.042447 0.407114 7.842925 -5.424191
1311867172.045564 0.407114 7.890821 -5.376295
1311867172.046668 0.407114 7.890821 -5.376295
1311867172.050184 0.407114 7.938717 -5.376295
1311867172.051310 0.407114 7.938717 -5.376295
1311867172.054479 0.407114 8.130300 -5.424191
1311867172.055434 0.407114 8.130300 -5.424191
1311867172.056789 0.407114 8.130300 -5.424191
1311867172.057695 0.407114 8.130300 -5.424191
1311867172.061329 0.407114 8.369778 -5.376295
1311867172.062634 0.407114 8.369778 -5.376295
1311867172.065565 0.407114 8.345830 -5.376295
1311867172.066685 0.407114 8.345830 -5.376295
1311867172.070225 0.407114 8.345830 -5.280504
1311867172.071174 0.407114 8.345830 -5.280504
1311867172.074467 0.407114 8.369778 -5.376295
1311867172.075451 0.407114 8.369778 -5.376295
1311867172.076702 0.407114 8.369778 -5.376295
1311867172.077671 0.407114 8.369778 -5.376295
1311867172.081596 0.419088 8.417674 -5.376295
1311867172.084428 0.407114 8.513465 -5.388269
1311867172.085542 0.407114 8.513465 -5.388269
1311867172.088798 0.455009 8.321882 -5.376295
1311867172.090060 0.455009 8.321882 -5.376295
1311867172.091436 0.455009 8.321882 -5.376295
1311867172.092428 0.455009 8.321882 -5.376295
1311867172.095692 0.455009 8.130300 -5.376295
1311867172.096663 0.455009 8.130300 -5.376295
1311867172.100350 0.706462 8.130300 -5.376295
1311867172.101454 0.706462 8.130300 -5.376295
1311867172.102592 0.706462 8.130300 -5.376295
1311867172.105554 0.598697 7.938717 -5.376295
1311867172.106657 0.598697 7.938717 -5.376295
1311867172.110307 0.598697 7.651342 -5.376295
1311867172.111290 0.598697 7.651342 -5.376295
1311867172.114552 0.598697 7.747134 -5.184712
1311867172.115537 0.598697 7.747134 -5.184712
1311867172.119179 0.598697 7.603447 -5.280504
1311867172.120182 0.598697 7.603447 -5.280504
1311867172.121459 0.598697 7.603447 -5.280504
1311867172.122565 0.598697 7.603447 -5.280504
1311867172.125711 0.502905 7.842925 -5.184712
1311867172.126717 0.502905 7.842925 -5.184712
1311867172.130297 0.598697 7.747134 -4.993129
1311867172.131318 0.598697 7.747134 -4.993129
1311867172.134560 0.598697 7.747134 -5.088921
1311867172.135562 0.598697 7.747134 -5.088921
1311867172.139212 0.598697 7.747134 -5.005103
1311867172.140177 0.598697 7.747134 -5.005103
1311867172.141450 0.598697 7.747134 -5.005103
1311867172.142448 0.598697 7.747134 -5.005103
1311867172.145580 0.706462 7.986612 -5.184712
1311867172.146681 0.706462 7.986612 -5.184712
1311867172.150186 0.431062 8.130300 -5.280504
1311867172.151291 0.431062 8.130300 -5.280504
1311867172.154429 0.598697 8.130300 -5.376295
1311867172.155554 0.598697 8.130300 -5.376295
1311867172.157244 0.598697 8.130300 -5.376295
1311867172.160194 0.754358 7.962665 -5.388269
1311867172.161295 0.754358 7.962665 -5.388269
1311867172.164438 0.802253 7.938717 -5.280504
1311867172.165539 0.802253 7.938717 -5.280504
1311867172.169081 0.802253 7.938717 -5.328400
1311867172.170177 0.802253 7.938717 -5.328400
1311867172.171462 0.802253 7.938717 -5.328400
1311867172.172467 0.802253 7.938717 -5.328400
1311867172.175673 0.754358 7.747134 -5.041025
1311867172.176665 0.754358 7.747134 -5.041025
1311867172.180326 0.778306 7.651342 -4.993129
1311867172.181327 0.778306 7.651342 -4.993129
1311867172.184554 0.754358 7.651342 -5.328400
1311867172.185543 0.754358 7.651342 -5.328400
1311867172.189377 0.598697 7.651342 -5.088921
1311867172.190322 0.598697 7.651342 -5.088921
1311867172.191447 0.598697 7.651342 -5.088921
1311867172.193132 0.598697 7.651342 -5.088921
1311867172.195720 0.778306 7.747134 -5.280504
1311867172.196696 0.778306 7.747134 -5.280504
1311867172.200320 0.802253 7.747134 -5.005103
1311867172.201511 0.802253 7.747134 -5.005103
1311867172.204445 0.802253 7.938717 -4.993129
1311867172.205580 0.802253 7.938717 -4.993129
1311867172.208697 0.754358 7.986612 -4.993129
1311867172.209823 0.754358 7.986612 -4.993129
1311867172.211298 0.754358 7.986612 -4.993129
1311867172.212423 0.754358 7.986612 -4.993129
1311867172.215563 0.598697 7.950691 -5.184712
1311867172.216676 0.598697 7.950691 -5.184712
1311867172.220296 0.455009 7.938717 -5.280504
1311867172.221311 0.455009 7.938717 -5.280504
1311867172.224782 0.598697 7.926743 -4.993129
1311867172.225680 0.598697 7.926743 -4.993129
1311867172.226700 0.598697 7.926743 -4.993129
1311867172.230315 0.778306 7.938717 -5.088921
1311867172.231310 0.778306 7.938717 -5.088921
1311867172.234898 0.706462 7.938717 -5.184712
1311867172.236094 0.706462 7.938717 -5.184712
1311867172.239342 0.802253 7.962665 -5.376295
1311867172.240321 0.802253 7.962665 -5.376295
1311867172.241578 0.802253 7.962665 -5.376295
1311867172.242702 0.802253 7.962665 -5.376295
1311867172.246182 0.838175 7.938717 -5.376295
1311867172.247182 0.838175 7.938717 -5.376295
1311867172.250436 0.993836 7.842925 -5.567878
1311867172.251547 0.993836 7.842925 -5.567878
1311867172.254587 0.993836 7.938717 -5.567878
1311867172.255553 0.993836 7.938717 -5.567878
1311867172.259195 0.993836 7.938717 -5.567878
1311867172.260165 0.993836 7.938717 -5.567878
1311867172.261507 0.993836 7.938717 -5.567878
1311867172.262697 0.993836 7.938717 -5.567878
1311867172.265571 0.838175 8.034508 -5.747487
1311867172.266688 0.838175 8.034508 -5.747487
1311867172.270205 0.802253 8.130300 -5.951044
1311867172.271360 0.802253 8.130300 -5.951044
1311867172.274429 0.790279 8.130300 -5.855253
1311867172.275567 0.790279 8.130300 -5.855253
1311867172.276816 0.790279 8.130300 -5.855253
1311867172.280186 0.802253 8.130300 -5.759461
1311867172.281333 0.802253 8.130300 -5.759461
1311867172.284451 0.706462 8.297935 -5.759461
1311867172.285570 0.706462 8.297935 -5.759461
1311867172.288934 0.706462 8.273987 -5.567878
1311867172.290200 0.706462 8.273987 -5.567878
1311867172.291471 0.706462 8.273987 -5.567878
1311867172.292471 0.706462 8.273987 -5.567878
1311867172.295701 0.598697 8.321882 -5.424191
1311867172.296701 0.598697 8.321882 -5.424191
1311867172.300332 0.598697 8.417674 -5.424191
1311867172.301316 0.598697 8.417674 -5.424191
1311867172.304601 0.802253 8.321882 -5.388269
1311867172.305545 0.802253 8.321882 -5.388269
1311867172.309200 0.802253 8.321882 -5.567878
1311867172.310184 0.802253 8.321882 -5.567878
1311867172.311209 0.802253 8.321882 -5.567878
1311867172.314564 0.802253 8.321882 -5.663670
1311867172.315551 0.802253 8.321882 -5.663670
1311867172.319606 0.598697 8.130300 -5.759461
1311867172.320437 0.598697 8.130300 -5.759461
1311867172.321766 0.598697 8.130300 -5.759461
1311867172.325231 0.778306 7.938717 -6.046835
1311867172.326214 0.778306 7.938717 -6.046835
1311867172.329472 0.598697 7.938717 -5.759461
1311867172.330512 0.598697 7.938717 -5.759461
1311867172.331693 0.598697 7.938717 -5.759461
1311867172.332766 0.598697 7.938717 -5.759461
1311867172.336353 0.790279 8.034508 -5.567878
1311867172.337466 0.790279 8.034508 -5.567878
1311867172.340591 0.598697 8.273987 -5.567878
1311867172.341593 0.598697 8.273987 -5.567878
1311867172.345234 0.598697 8.321882 -5.472087
1311867172.346321 0.598697 8.321882 -5.472087
1311867172.349444 0.502905 8.321882 -5.376295
1311867172.350574 0.502905 8.321882 -5.376295
1311867172.351700 0.502905 8.321882 -5.376295
1311867172.352696 0.502905 8.321882 -5.376295
1311867172.356343 0.598697 8.417674 -5.376295
1311867172.357303 0.598697 8.417674 -5.376295
1311867172.360605 0.598697 8.513465 -5.424191
1311867172.361726 0.598697 8.513465 -5.424191
1311867172.365207 0.502905 8.321882 -5.567878
1311867172.366313 0.502905 8.321882 -5.567878
1311867172.369495 0.502905 8.345830 -5.735513
1311867172.370609 0.502905 8.345830 -5.735513
1311867172.371754 0.502905 8.345830 -5.735513
1311867172.372945 0.502905 8.345830 -5.735513
1311867172.376354 0.598697 7.986612 -5.759461
1311867172.377430 0.598697 7.986612 -5.759461
1311867172.380582 0.778306 7.938717 -5.759461
1311867172.381561 0.778306 7.938717 -5.759461
1311867172.385205 0.802253 7.579499 -5.759461
1311867172.386317 0.802253 7.579499 -5.759461
1311867172.389505 0.598697 7.507655 -5.663670
1311867172.390478 0.598697 7.507655 -5.663670
1311867172.391712 0.598697 7.507655 -5.663670
1311867172.392692 0.598697 7.507655 -5.663670
1311867172.396322 0.502905 7.459759 -5.759461
1311867172.397313 0.502905 7.459759 -5.759461
1311867172.400579 0.502905 7.507655 -5.711565
1311867172.401719 0.502905 7.507655 -5.711565
1311867172.405335 0.431062 7.651342 -5.328400
1311867172.406373 0.431062 7.651342 -5.328400
1311867172.409615 0.502905 7.842925 -5.184712
1311867172.410730 0.502905 7.842925 -5.184712
1311867172.414195 0.419088 7.986612 -4.993129
1311867172.415178 0.419088 7.986612 -4.993129
1311867172.416428 0.419088 7.986612 -4.993129
1311867172.417726 0.419088 7.986612 -4.993129
1311867172.420706 0.598697 8.130300 -4.633912
1311867172.421703 0.598697 8.130300 -4.633912
1311867172.425204 0.407114 8.130300 -4.609964
1311867172.426344 0.407114 8.130300 -4.609964
1311867172.429477 0.407114 8.273987 -4.657859
1311867172.430595 0.407114 8.273987 -4.657859
1311867172.432080 0.407114 8.273987 -4.657859
1311867172.433210 0.407114 8.273987 -4.657859
1311867172.436443 0.598697 8.273987 -4.633912
1311867172.437474 0.598697 8.273987 -4.633912
1311867172.440742 0.502905 8.130300 -4.993129
1311867172.441720 0.502905 8.130300 -4.993129
1311867172.445350 0.790279 8.130300 -5.017077
1311867172.446314 0.790279 8.130300 -5.017077
1311867172.449605 0.598697 8.034508 -5.376295
1311867172.450602 0.598697 8.034508 -5.376295
1311867172.454226 0.886071 7.926743 -5.472087
1311867172.455207 0.886071 7.926743 -5.472087
1311867172.456459 0.886071 7.926743 -5.472087
1311867172.457459 0.886071 7.926743 -5.472087
1311867172.460731 0.802253 7.842925 -5.759461
1311867172.461725 0.802253 7.842925 -5.759461
1311867172.465349 0.802253 7.842925 -6.142627
1311867172.466332 0.802253 7.842925 -6.142627
1311867172.470506 0.802253 7.747134 -6.477897
1311867172.471346 0.802253 7.747134 -6.477897
1311867172.472476 0.802253 7.747134 -6.477897
1311867172.475634 0.802253 7.938717 -6.573688
1311867172.476595 0.802253 7.938717 -6.573688
1311867172.480162 0.838175 7.938717 -6.525793
1311867172.481215 0.838175 7.938717 -6.525793
1311867172.484456 0.814227 7.914769 -6.334210
1311867172.485450 0.814227 7.914769 -6.334210
1311867172.486710 0.814227 7.914769 -6.334210
1311867172.487787 0.814227 7.914769 -6.334210
1311867172.491583 0.802253 7.938717 -6.142627
1311867172.494637 0.802253 7.938717 -6.142627
1311867172.495641 0.802253 7.938717 -6.142627
1311867172.496717 0.802253 7.938717 -6.142627
1311867172.497853 0.802253 7.938717 -6.142627
1311867172.501374 0.706462 7.890821 -5.759461
1311867172.502496 0.706462 7.890821 -5.759461
1311867172.505711 0.598697 7.938717 -5.472087
1311867172.506735 0.598697 7.938717 -5.472087
1311867172.510381 0.598697 7.938717 -5.280504
1311867172.511287 0.598697 7.938717 -5.280504
1311867172.514582 0.455009 7.938717 -4.993129
1311867172.515570 0.455009 7.938717 -4.993129
1311867172.519223 0.706462 7.938717 -4.801547
1311867172.520349 0.706462 7.938717 -4.801547
1311867172.521451 0.706462 7.938717 -4.801547
1311867172.522493 0.706462 7.938717 -4.801547
1311867172.525706 0.502905 7.986612 -4.609964
1311867172.526696 0.502905 7.986612 -4.609964
1311867172.530329 0.598697 7.986612 -4.609964
1311867172.531382 0.598697 7.986612 -4.609964
1311867172.534600 0.706462 7.938717 -4.993129
1311867172.535620 0.706462 7.938717 -4.993129
1311867172.539234 0.778306 7.938717 -4.993129
1311867172.540207 0.778306 7.938717 -4.993129
1311867172.541485 0.778306 7.938717 -4.993129
1311867172.542569 0.778306 7.938717 -4.993129
1311867172.545704 0.754358 7.938717 -5.280504
1311867172.546687 0.754358 7.938717 -5.280504
1311867172.550344 0.502905 7.986612 -5.376295
1311867172.551336 0.502905 7.986612 -5.376295
1311867172.554592 0.790279 7.938717 -5.711565
1311867172.555715 0.790279 7.938717 -5.711565
1311867172.559228 0.790279 7.938717 -5.567878
1311867172.560337 0.790279 7.938717 -5.567878
1311867172.561504 0.790279 7.938717 -5.567878
1311867172.562587 0.790279 7.938717 -5.567878
1311867172.565596 0.886071 7.938717 -5.567878
1311867172.566699 0.886071 7.938717 -5.567878
1311867172.570419 0.993836 7.938717 -5.711565
1311867172.571440 0.993836 7.938717 -5.711565
1311867172.572402 0.993836 7.938717 -5.711565
1311867172.575771 0.886071 7.914769 -5.472087
1311867172.576729 0.886071 7.914769 -5.472087
1311867172.580332 0.802253 7.842925 -5.567878
1311867172.582327 0.802253 7.842925 -5.567878
1311867172.584587 0.838175 7.890821 -5.472087
1311867172.585608 0.838175 7.890821 -5.472087
1311867172.589254 0.993836 7.747134 -5.376295
1311867172.590213 0.993836 7.747134 -5.376295
1311867172.591211 0.993836 7.747134 -5.376295
1311867172.594613 0.993836 7.842925 -5.376295
1311867172.595966 0.993836 7.842925 -5.376295
1311867172.599229 1.137524 7.938717 -5.376295
1311867172.600228 1.137524 7.938717 -5.376295
1311867172.601480 1.137524 7.938717 -5.376295
1311867172.602470 1.137524 7.938717 -5.376295
1311867172.605597 0.993836 7.555551 -5.184712
1311867172.606716 0.993836 7.555551 -5.184712
1311867172.610349 0.838175 7.651342 -5.088921
1311867172.611345 0.838175 7.651342 -5.088921
1311867172.614585 0.802253 7.555551 -5.280504
1311867172.615581 0.802253 7.555551 -5.280504
1311867172.619285 0.598697 7.555551 -5.280504
1311867172.620209 0.598697 7.555551 -5.280504
1311867172.621497 0.598697 7.555551 -5.280504
1311867172.622605 0.598697 7.555551 -5.280504
1311867172.625720 0.802253 7.914769 -4.993129
1311867172.626732 0.802253 7.914769 -4.993129
1311867172.630349 0.993836 7.747134 -5.005103
1311867172.631405 0.993836 7.747134 -5.005103
1311867172.634576 0.993836 7.938717 -5.088921
1311867172.635531 0.993836 7.938717 -5.088921
1311867172.639210 0.814227 7.842925 -5.088921
1311867172.640193 0.814227 7.842925 -5.088921
1311867172.641500 0.814227 7.842925 -5.088921
1311867172.642441 0.814227 7.842925 -5.088921
1311867172.645760 0.802253 7.914769 -5.328400
1311867172.646736 0.802253 7.914769 -5.328400
1311867172.650254 0.886071 7.747134 -5.376295
1311867172.651359 0.886071 7.747134 -5.376295
1311867172.654608 0.886071 7.651342 -5.376295
1311867172.655612 0.886071 7.651342 -5.376295
1311867172.657227 0.886071 7.651342 -5.376295
1311867172.660343 0.993836 7.567525 -5.376295
1311867172.661503 0.993836 7.567525 -5.376295
1311867172.664610 0.993836 7.555551 -5.735513
1311867172.665724 0.993836 7.555551 -5.735513
1311867172.669408 0.886071 7.555551 -5.376295
1311867172.670345 0.886071 7.555551 -5.376295
1311867172.671613 0.886071 7.555551 -5.376295
1311867172.672602 0.886071 7.555551 -5.376295
1311867172.675739 0.993836 7.747134 -5.184712
1311867172.676706 0.993836 7.747134 -5.184712
1311867172.680343 0.993836 7.651342 -5.184712
1311867172.681370 0.993836 7.651342 -5.184712
1311867172.684598 0.802253 7.747134 -5.088921
1311867172.685576 0.802253 7.747134 -5.088921
1311867172.689237 0.993836 7.890821 -5.184712
1311867172.690269 0.993836 7.890821 -5.184712
1311867172.691563 0.993836 7.890821 -5.184712
1311867172.692489 0.993836 7.890821 -5.184712
1311867172.695712 0.886071 7.926743 -5.376295
1311867172.696694 0.886071 7.926743 -5.376295
1311867172.700251 0.993836 7.890821 -5.472087
1311867172.701365 0.993836 7.890821 -5.472087
1311867172.704639 1.137524 7.842925 -5.472087
1311867172.705620 1.137524 7.842925 -5.472087
1311867172.709217 1.137524 7.747134 -5.951044
1311867172.710204 1.137524 7.747134 -5.951044
1311867172.711449 1.137524 7.747134 -5.951044
1311867172.712443 1.137524 7.747134 -5.951044
1311867172.715759 0.993836 7.747134 -5.855253
1311867172.716790 0.993836 7.747134 -5.855253
1311867172.720380 0.993836 7.747134 -6.118679
1311867172.721345 0.993836 7.747134 -6.118679
1311867172.724601 0.886071 7.914769 -6.118679
1311867172.725605 0.886071 7.914769 -6.118679
1311867172.729228 0.802253 7.842925 -6.142627
1311867172.730237 0.802253 7.842925 -6.142627
1311867172.731488 0.802253 7.842925 -6.142627
1311867172.732490 0.802253 7.842925 -6.142627
1311867172.735750 0.802253 7.842925 -6.142627
1311867172.736721 0.802253 7.842925 -6.142627
1311867172.740241 0.802253 7.938717 -5.951044
1311867172.741339 0.802253 7.938717 -5.951044
1311867172.744606 0.802253 8.130300 -5.759461
1311867172.745606 0.802253 8.130300 -5.759461
1311867172.749236 0.802253 8.130300 -5.807357
1311867172.750343 0.802253 8.130300 -5.807357
1311867172.751337 0.802253 8.130300 -5.807357
1311867172.754593 0.790279 7.962665 -5.567878
1311867172.755581 0.790279 7.962665 -5.567878
1311867172.759339 0.802253 7.962665 -5.400243
1311867172.760200 0.802253 7.962665 -5.400243
1311867172.761461 0.802253 7.962665 -5.400243
1311867172.762494 0.802253 7.962665 -5.400243
1311867172.765620 0.706462 7.938717 -5.376295
1311867172.766737 0.706462 7.938717 -5.376295
1311867172.770237 0.598697 7.938717 -5.472087
1311867172.771344 0.598697 7.938717 -5.472087
1311867172.774504 0.455009 7.938717 -5.567878
1311867172.775569 0.455009 7.938717 -5.567878
1311867172.776678 0.455009 7.938717 -5.567878
1311867172.777846 0.455009 7.938717 -5.567878
1311867172.781422 0.407114 7.938717 -5.567878
1311867172.782464 0.407114 7.938717 -5.567878
1311867172.785591 0.371192 7.938717 -5.376295
1311867172.786714 0.371192 7.938717 -5.376295
1311867172.790242 0.371192 7.938717 -5.376295
1311867172.791214 0.371192 7.938717 -5.376295
1311867172.794487 0.227505 7.938717 -5.376295
1311867172.795459 0.227505 7.938717 -5.376295
1311867172.796741 0.227505 7.938717 -5.376295
1311867172.797740 0.227505 7.938717 -5.376295
1311867172.801393 0.323296 8.034508 -5.759461
1311867172.802491 0.323296 8.034508 -5.759461
1311867172.805758 0.371192 8.130300 -5.567878
1311867172.806726 0.371192 8.130300 -5.567878
1311867172.810357 0.407114 8.226091 -5.567878
1311867172.811354 0.407114 8.226091 -5.567878
1311867172.814501 0.227505 8.321882 -5.567878
1311867172.815464 0.227505 8.321882 -5.567878
1311867172.816715 0.227505 8.321882 -5.567878
1311867172.817752 0.227505 8.321882 -5.567878
1311867172.821373 0.227505 8.226091 -5.759461
1311867172.822792 0.227505 8.226091 -5.759461
1311867172.825625 0.227505 8.130300 -5.759461
1311867172.826736 0.227505 8.130300 -5.759461
1311867172.830217 0.035922 8.130300 -5.759461
1311867172.831255 0.035922 8.130300 -5.759461
1311867172.834488 0.023948 8.273987 -5.747487
1311867172.835482 0.023948 8.273987 -5.747487
1311867172.836744 0.023948 8.273987 -5.747487
1311867172.837749 0.023948 8.273987 -5.747487
1311867172.841378 0.035922 8.130300 -5.472087
1311867172.842479 0.035922 8.130300 -5.472087
1311867172.845603 0.023948 8.226091 -5.472087
1311867172.846745 0.023948 8.226091 -5.472087
1311867172.850217 0.023948 8.130300 -5.472087
1311867172.851356 0.023948 8.130300 -5.472087
1311867172.854484 0.071844 8.309909 -5.567878
1311867172.855481 0.071844 8.309909 -5.567878
1311867172.856714 0.071844 8.309909 -5.567878
1311867172.857733 0.071844 8.309909 -5.567878
1311867172.861389 0.071844 8.273987 -5.735513
1311867172.862348 0.071844 8.273987 -5.735513
1311867172.865615 0.323296 8.034508 -5.759461
1311867172.866607 0.323296 8.034508 -5.759461
1311867172.870292 0.071844 7.938717 -5.783409
1311867172.871268 0.071844 7.938717 -5.783409
1311867172.874518 0.119739 7.950691 -5.711565
1311867172.875477 0.119739 7.950691 -5.711565
1311867172.876726 0.119739 7.950691 -5.711565
1311867172.877720 0.119739 7.950691 -5.711565
1311867172.881359 0.119739 8.034508 -5.759461
1311867172.882339 0.119739 8.034508 -5.759461
1311867172.885596 0.023948 7.938717 -5.567878
1311867172.886597 0.023948 7.938717 -5.567878
1311867172.890238 0.023948 8.130300 -5.735513
1311867172.891233 0.023948 8.130300 -5.735513
1311867172.894486 0.023948 7.986612 -5.472087
1311867172.895598 0.023948 7.986612 -5.472087
1311867172.896744 0.023948 7.986612 -5.472087
1311867172.897851 0.023948 7.986612 -5.472087
1311867172.901403 0.023948 7.938717 -5.376295
1311867172.902775 0.023948 7.938717 -5.376295
1311867172.905629 0.023948 7.938717 -4.993129
1311867172.906739 0.023948 7.938717 -4.993129
1311867172.910357 -0.167635 8.034508 -5.376295
1311867172.911339 -0.167635 8.034508 -5.376295
1311867172.914601 0.023948 7.986612 -5.184712
1311867172.915589 0.023948 7.986612 -5.184712
1311867172.919235 0.035922 8.034508 -4.993129
1311867172.920232 0.035922 8.034508 -4.993129
1311867172.921480 0.035922 8.034508 -4.993129
1311867172.922625 0.035922 8.034508 -4.993129
1311867172.925602 0.023948 8.034508 -5.184712
1311867172.926749 0.023948 8.034508 -5.184712
1311867172.931788 0.119739 7.938717 -5.041025
1311867172.934237 0.023948 7.938717 -5.280504
1311867172.935225 0.023948 7.938717 -5.280504
1311867172.936460 0.023948 7.938717 -5.280504
1311867172.937465 0.023948 7.938717 -5.280504
1311867172.940631 0.119739 7.938717 -5.376295
1311867172.941749 0.119739 7.938717 -5.376295
1311867172.945227 0.071844 7.950691 -5.567878
1311867172.946380 0.071844 7.950691 -5.567878
1311867172.949600 0.047896 7.938717 -5.663670
1311867172.950585 0.047896 7.938717 -5.663670
1311867172.954242 0.227505 7.938717 -5.711565
1311867172.955262 0.227505 7.938717 -5.711565
1311867172.956492 0.227505 7.938717 -5.711565
1311867172.957508 0.227505 7.938717 -5.711565
1311867172.960756 0.407114 7.986612 -5.567878
1311867172.961735 0.407114 7.986612 -5.567878
1311867172.965189 0.227505 7.986612 -5.376295
1311867172.966439 0.227505 7.986612 -5.376295
1311867172.969648 0.395140 8.034508 -5.472087
1311867172.970616 0.395140 8.034508 -5.472087
1311867172.974228 0.371192 8.130300 -5.376295
1311867172.975343 0.371192 8.130300 -5.376295
1311867172.976498 0.371192 8.130300 -5.376295
1311867172.977471 0.371192 8.130300 -5.376295
1311867172.980631 0.407114 8.130300 -5.472087
1311867172.981745 0.407114 8.130300 -5.472087
1311867172.985248 0.502905 8.034508 -5.400243
1311867172.986365 0.502905 8.034508 -5.400243
1311867172.989485 0.598697 7.914769 -5.424191
1311867172.990646 0.598697 7.914769 -5.424191
1311867172.992122 0.598697 7.914769 -5.424191
1311867172.995314 0.598697 7.603447 -5.376295
1311867172.996353 0.598697 7.603447 -5.376295
1311867172.999632 0.455009 7.555551 -5.567878
1311867173.000612 0.455009 7.555551 -5.567878
1311867173.002249 0.455009 7.555551 -5.567878
1311867173.005396 0.455009 7.459759 -5.472087
1311867173.006364 0.455009 7.459759 -5.472087
1311867173.009652 0.598697 7.507655 -5.567878
1311867173.010590 0.598697 7.507655 -5.567878
1311867173.014363 0.598697 7.543577 -5.184712
1311867173.015352 0.598697 7.543577 -5.184712
1311867173.016483 0.598697 7.543577 -5.184712
1311867173.017606 0.598697 7.543577 -5.184712
1311867173.020611 0.790279 7.567525 -5.184712
1311867173.021737 0.790279 7.567525 -5.184712
1311867173.025384 0.790279 7.603447 -5.184712
1311867173.026365 0.790279 7.603447 -5.184712
1311867173.029633 0.502905 7.747134 -5.184712
1311867173.030660 0.502905 7.747134 -5.184712
1311867173.034237 0.455009 7.747134 -5.376295
1311867173.035393 0.455009 7.747134 -5.376295
1311867173.036361 0.455009 7.747134 -5.376295
1311867173.039625 0.598697 7.747134 -5.376295
1311867173.040598 0.598697 7.747134 -5.376295
1311867173.044227 0.802253 7.926743 -5.424191
1311867173.045219 0.802253 7.926743 -5.424191
1311867173.046475 0.802253 7.926743 -5.424191
1311867173.047503 0.802253 7.926743 -5.424191
1311867173.050722 1.089628 7.747134 -5.759461
1311867173.051745 1.089628 7.747134 -5.759461
1311867173.055349 1.089628 7.555551 -5.855253
1311867173.056483 1.089628 7.555551 -5.855253
1311867173.059661 0.993836 7.543577 -5.951044
1311867173.060662 0.993836 7.543577 -5.951044
1311867173.064239 0.838175 7.363968 -6.130653
1311867173.065300 0.838175 7.363968 -6.130653
1311867173.066521 0.838175 7.363968 -6.130653
1311867173.067496 0.838175 7.363968 -6.130653
1311867173.070953 0.993836 7.363968 -5.759461
1311867173.074273 0.838175 7.555551 -5.663670
1311867173.075241 0.838175 7.555551 -5.663670
1311867173.076487 0.838175 7.555551 -5.663670
1311867173.077489 0.838175 7.555551 -5.663670
1311867173.080764 0.993836 7.555551 -5.567878
1311867173.081742 0.993836 7.555551 -5.567878
1311867173.085372 0.886071 7.555551 -5.328400
1311867173.086355 0.886071 7.555551 -5.328400
1311867173.089616 0.802253 7.603447 -5.376295
1311867173.090676 0.802253 7.603447 -5.376295
1311867173.094266 0.754358 7.555551 -5.280504
1311867173.095226 0.754358 7.555551 -5.280504
1311867173.096497 0.754358 7.555551 -5.280504
1311867173.097494 0.754358 7.555551 -5.280504
1311867173.100769 0.706462 7.890821 -4.993129
1311867173.101757 0.706462 7.890821 -4.993129
1311867173.105374 0.802253 7.747134 -5.088921
1311867173.106499 0.802253 7.747134 -5.088921
1311867173.109638 0.802253 7.914769 -5.184712
1311867173.110603 0.802253 7.914769 -5.184712
1311867173.114242 0.598697 7.890821 -5.184712
1311867173.115227 0.598697 7.890821 -5.184712
1311867173.116478 0.598697 7.890821 -5.184712
1311867173.117481 0.598697 7.890821 -5.184712
1311867173.120640 0.802253 7.747134 -5.184712
1311867173.121631 0.802253 7.747134 -5.184712
1311867173.125262 0.802253 7.938717 -5.280504
1311867173.126509 0.802253 7.938717 -5.280504
1311867173.130187 0.838175 7.747134 -5.376295
1311867173.131114 0.838175 7.747134 -5.376295
1311867173.134366 0.993836 7.747134 -5.424191
1311867173.135325 0.993836 7.747134 -5.424191
1311867173.136579 0.993836 7.747134 -5.424191
1311867173.137571 0.993836 7.747134 -5.424191
1311867173.140744 1.089628 7.579499 -5.567878
1311867173.141743 1.089628 7.579499 -5.567878
1311867173.145365 0.993836 7.747134 -5.759461
1311867173.146357 0.993836 7.747134 -5.759461
1311867173.149620 1.137524 7.651342 -5.951044
1311867173.150745 1.137524 7.651342 -5.951044
1311867173.154288 0.993836 7.747134 -5.759461
1311867173.155707 0.993836 7.747134 -5.759461
1311867173.156623 0.993836 7.747134 -5.759461
1311867173.157634 0.993836 7.747134 -5.759461
1311867173.160671 1.137524 7.747134 -5.951044
1311867173.161774 1.137524 7.747134 -5.951044
1311867173.165341 0.993836 7.747134 -5.759461
1311867173.166402 0.993836 7.747134 -5.759461
1311867173.169521 1.137524 7.567525 -5.711565
1311867173.170645 1.137524 7.567525 -5.711565
1311867173.172252 1.137524 7.567525 -5.711565
1311867173.175371 0.993836 7.747134 -5.711565
1311867173.176353 0.993836 7.747134 -5.711565
1311867173.179635 0.993836 7.938717 -5.759461
1311867173.180627 0.993836 7.938717 -5.759461
1311867173.185559 0.802253 7.938717 -5.759461
1311867173.186364 0.802253 7.938717 -5.759461
1311867173.189508 0.886071 7.890821 -5.711565
1311867173.190632 0.886071 7.890821 -5.711565
1311867173.191779 0.886071 7.890821 -5.711565
1311867173.192873 0.886071 7.890821 -5.711565
1311867173.196425 0.802253 7.938717 -5.472087
1311867173.197515 0.802253 7.938717 -5.472087
1311867173.200658 0.802253 7.938717 -5.376295
1311867173.201629 0.802253 7.938717 -5.376295
1311867173.205254 0.802253 7.842925 -5.184712
1311867173.206391 0.802253 7.842925 -5.184712
1311867173.209618 0.802253 7.938717 -5.352347
1311867173.210624 0.802253 7.938717 -5.352347
1311867173.214305 0.598697 8.034508 -5.280504
1311867173.215450 0.598697 8.034508 -5.280504
1311867173.216602 0.598697 8.034508 -5.280504
1311867173.217528 0.598697 8.034508 -5.280504
1311867173.220809 0.814227 7.962665 -5.280504
1311867173.221745 0.814227 7.962665 -5.280504
1311867173.225402 0.886071 7.986612 -5.472087
1311867173.226412 0.886071 7.986612 -5.472087
1311867173.229640 0.838175 7.938717 -5.567878
1311867173.230647 0.838175 7.938717 -5.567878
1311867173.234313 0.993836 7.890821 -5.567878
1311867173.235245 0.993836 7.890821 -5.567878
1311867173.236500 0.993836 7.890821 -5.567878
1311867173.237485 0.993836 7.890821 -5.567878
1311867173.240774 0.993836 7.890821 -5.759461
1311867173.241749 0.993836 7.890821 -5.759461
1311867173.245410 0.886071 7.603447 -5.807357
1311867173.246367 0.886071 7.603447 -5.807357
1311867173.249672 0.993836 7.651342 -5.759461
1311867173.250652 0.993836 7.651342 -5.759461
1311867173.254263 0.886071 7.555551 -5.759461
1311867173.255260 0.886071 7.555551 -5.759461
1311867173.256474 0.886071 7.555551 -5.759461
1311867173.257483 0.886071 7.555551 -5.759461
1311867173.260660 0.814227 7.747134 -5.759461
1311867173.261760 0.814227 7.747134 -5.759461
1311867173.265256 0.838175 7.747134 -5.472087
1311867173.266386 0.838175 7.747134 -5.472087
1311867173.269556 0.802253 7.747134 -5.472087
1311867173.270656 0.802253 7.747134 -5.472087
1311867173.272251 0.802253 7.747134 -5.472087
1311867173.275366 0.993836 7.747134 -5.759461
1311867173.276362 0.993836 7.747134 -5.759461
1311867173.279650 0.886071 7.747134 -5.735513
1311867173.280638 0.886071 7.747134 -5.735513
1311867173.284294 0.886071 7.747134 -5.759461
1311867173.285244 0.886071 7.747134 -5.759461
1311867173.286510 0.886071 7.747134 -5.759461
1311867173.287612 0.886071 7.747134 -5.759461
1311867173.290765 0.814227 7.747134 -5.472087
1311867173.291751 0.814227 7.747134 -5.472087
1311867173.295431 0.886071 7.747134 -5.567878
1311867173.296401 0.886071 7.747134 -5.567878
1311867173.299631 0.802253 7.747134 -5.567878
1311867173.301018 0.802253 7.747134 -5.567878
1311867173.304249 0.790279 7.926743 -5.567878
1311867173.305238 0.790279 7.926743 -5.567878
1311867173.306626 0.790279 7.926743 -5.567878
1311867173.307609 0.790279 7.926743 -5.567878
1311867173.310780 0.790279 7.938717 -5.567878
1311867173.311773 0.790279 7.938717 -5.567878
1311867173.315365 0.802253 7.938717 -5.759461
1311867173.316404 0.802253 7.938717 -5.759461
1311867173.319658 0.802253 7.962665 -5.759461
1311867173.320734 0.802253 7.962665 -5.759461
1311867173.324295 0.754358 8.034508 -5.951044
1311867173.325284 0.754358 8.034508 -5.951044
1311867173.326450 0.754358 8.034508 -5.951044
1311867173.327537 0.754358 8.034508 -5.951044
1311867173.330818 0.706462 7.938717 -5.855253
1311867173.331755 0.706462 7.938717 -5.855253
1311867173.335388 0.598697 8.130300 -5.759461
1311867173.336362 0.598697 8.130300 -5.759461
1311867173.339664 0.598697 8.034508 -5.759461
1311867173.340650 0.598697 8.034508 -5.759461
1311867173.344263 0.598697 8.130300 -5.759461
1311867173.345262 0.598697 8.130300 -5.759461
1311867173.346489 0.598697 8.130300 -5.759461
1311867173.347514 0.598697 8.130300 -5.759461
1311867173.350748 0.706462 8.034508 -5.424191
1311867173.351764 0.706462 8.034508 -5.424191
1311867173.355263 0.598697 8.130300 -5.472087
1311867173.356381 0.598697 8.130300 -5.472087
1311867173.359527 0.706462 8.130300 -5.567878
1311867173.360620 0.706462 8.130300 -5.567878
1311867173.361806 0.706462 8.130300 -5.567878
1311867173.363174 0.706462 8.130300 -5.567878
1311867173.366558 0.598697 8.034508 -5.735513
1311867173.367528 0.598697 8.034508 -5.735513
1311867173.370850 0.598697 8.226091 -5.807357
1311867173.372304 0.598697 8.226091 -5.807357
1311867173.375412 0.598697 7.950691 -5.807357
1311867173.376364 0.598697 7.950691 -5.807357
1311867173.379628 0.407114 7.938717 -5.807357
1311867173.380659 0.407114 7.938717 -5.807357
1311867173.384259 0.598697 7.938717 -5.855253
1311867173.385243 0.598697 7.938717 -5.855253
1311867173.386569 0.598697 7.938717 -5.855253
1311867173.387561 0.598697 7.938717 -5.855253
1311867173.390763 0.598697 7.890821 -5.855253
1311867173.391762 0.598697 7.890821 -5.855253
1311867173.395258 0.455009 7.938717 -5.783409
1311867173.396362 0.455009 7.938717 -5.783409
1311867173.399505 0.598697 8.034508 -5.759461
1311867173.400582 0.598697 8.034508 -5.759461
1311867173.401788 0.598697 8.034508 -5.759461
1311867173.402949 0.598697 8.034508 -5.759461
1311867173.406383 0.598697 8.034508 -5.663670
1311867173.407489 0.598697 8.034508 -5.663670
1311867173.410764 0.598697 8.130300 -5.472087
1311867173.411806 0.598697 8.130300 -5.472087
1311867173.415251 0.754358 8.034508 -5.567878
1311867173.416373 0.754358 8.034508 -5.567878
1311867173.419520 0.706462 7.986612 -5.472087
1311867173.420627 0.706462 7.986612 -5.472087
1311867173.421808 0.706462 7.986612 -5.472087
1311867173.423263 0.706462 7.986612 -5.472087
1311867173.426565 0.754358 7.938717 -5.567878
1311867173.427525 0.754358 7.938717 -5.567878
1311867173.430760 0.754358 7.747134 -5.472087
1311867173.431789 0.754358 7.747134 -5.472087
1311867173.435389 0.802253 7.651342 -5.663670
1311867173.436380 0.802253 7.651342 -5.663670
1311867173.439675 0.802253 7.555551 -5.424191
1311867173.440665 0.802253 7.555551 -5.424191
1311867173.444249 0.802253 7.459759 -5.388269
1311867173.445255 0.802253 7.459759 -5.388269
1311867173.446564 0.802253 7.459759 -5.388269
1311867173.447699 0.802253 7.459759 -5.388269
1311867173.450776 0.802253 7.507655 -5.424191
1311867173.451767 0.802253 7.507655 -5.424191
1311867173.455401 0.802253 7.531603 -5.567878
1311867173.456421 0.802253 7.531603 -5.567878
1311867173.459694 0.838175 7.459759 -5.759461
1311867173.460670 0.838175 7.459759 -5.759461
1311867173.464257 0.778306 7.555551 -5.567878
1311867173.465384 0.778306 7.555551 -5.567878
1311867173.466643 0.778306 7.555551 -5.567878
1311867173.467692 0.778306 7.555551 -5.567878
1311867173.470781 0.802253 7.555551 -5.747487
1311867173.471748 0.802253 7.555551 -5.747487
1311867173.475423 0.790279 7.842925 -5.663670
1311867173.476540 0.790279 7.842925 -5.663670
1311867173.479661 0.802253 7.651342 -5.711565
1311867173.480621 0.802253 7.651342 -5.711565
1311867173.484272 0.802253 7.747134 -5.567878
1311867173.485295 0.802253 7.747134 -5.567878
1311867173.486554 0.802253 7.747134 -5.567878
1311867173.487685 0.802253 7.747134 -5.567878
1311867173.490785 0.706462 7.651342 -5.376295
1311867173.491785 0.706462 7.651342 -5.376295
1311867173.495256 0.598697 7.747134 -5.472087
1311867173.496368 0.598697 7.747134 -5.472087
1311867173.499540 0.802253 7.651342 -5.567878
1311867173.500655 0.802253 7.651342 -5.567878
1311867173.501773 0.802253 7.651342 -5.567878
1311867173.503262 0.802253 7.651342 -5.567878
1311867173.506677 0.598697 7.842925 -5.005103
1311867173.507668 0.598697 7.842925 -5.005103
1311867173.511001 0.790279 7.651342 -5.184712
1311867173.514302 0.802253 7.747134 -4.993129
1311867173.515271 0.802253 7.747134 -4.993129
1311867173.516540 0.802253 7.747134 -4.993129
1311867173.517509 0.802253 7.747134 -4.993129
1311867173.520792 0.706462 7.603447 -5.328400
1311867173.521776 0.706462 7.603447 -5.328400
1311867173.525400 0.802253 7.747134 -5.328400
1311867173.526389 0.802253 7.747134 -5.328400
1311867173.529653 0.778306 7.555551 -5.472087
1311867173.530646 0.778306 7.555551 -5.472087
1311867173.534297 0.778306 7.579499 -5.807357
1311867173.535262 0.778306 7.579499 -5.807357
1311867173.536514 0.778306 7.579499 -5.807357
1311867173.537527 0.778306 7.579499 -5.807357
1311867173.540631 0.706462 7.555551 -5.807357
1311867173.541630 0.706462 7.555551 -5.807357
1311867173.545356 0.598697 7.555551 -5.951044
1311867173.546387 0.598697 7.555551 -5.951044
1311867173.549506 0.598697 7.567525 -6.094731
1311867173.550670 0.598697 7.567525 -6.094731
1311867173.551874 0.598697 7.567525 -6.094731
1311867173.552930 0.598697 7.567525 -6.094731
1311867173.556394 0.790279 7.603447 -6.094731
1311867173.557513 0.790279 7.603447 -6.094731
1311867173.560826 0.598697 7.747134 -5.951044
1311867173.561808 0.598697 7.747134 -5.951044
1311867173.565273 0.598697 7.842925 -5.951044
1311867173.566387 0.598697 7.842925 -5.951044
1311867173.569706 0.502905 7.842925 -6.238418
1311867173.570685 0.502905 7.842925 -6.238418
1311867173.574324 0.598697 7.747134 -6.046835
1311867173.575262 0.598697 7.747134 -6.046835
1311867173.576540 0.598697 7.747134 -6.046835
1311867173.577570 0.598697 7.747134 -6.046835
1311867173.580766 0.407114 8.034508 -5.951044
1311867173.581761 0.407114 8.034508 -5.951044
1311867173.585553 0.407114 8.130300 -5.951044
1311867173.586509 0.407114 8.130300 -5.951044
1311867173.587518 0.407114 8.130300 -5.951044
1311867173.590771 0.371192 8.034508 -5.759461
1311867173.591789 0.371192 8.034508 -5.759461
1311867173.595387 0.323296 8.130300 -5.567878
1311867173.596375 0.323296 8.130300 -5.567878
1311867173.599669 0.227505 8.226091 -5.567878
1311867173.600679 0.227505 8.226091 -5.567878
1311867173.604271 0.119739 8.130300 -5.376295
1311867173.605253 0.119739 8.130300 -5.376295
1311867173.606533 0.119739 8.130300 -5.376295
1311867173.607556 0.119739 8.130300 -5.376295
1311867173.610734 0.227505 8.130300 -5.376295
1311867173.611705 0.227505 8.130300 -5.376295
1311867173.615271 0.323296 8.130300 -5.280504
1311867173.616406 0.323296 8.130300 -5.280504
1311867173.619550 0.407114 8.130300 -5.005103
1311867173.620636 0.407114 8.130300 -5.005103
1311867173.621807 0.407114 8.130300 -5.005103
1311867173.623274 0.407114 8.130300 -5.005103
1311867173.626535 0.227505 8.130300 -5.328400
1311867173.627538 0.227505 8.130300 -5.328400
1311867173.630830 0.323296 8.130300 -5.388269
1311867173.631782 0.323296 8.130300 -5.388269
1311867173.635412 0.407114 8.130300 -5.376295
1311867173.636385 0.407114 8.130300 -5.376295
1311867173.639652 0.754358 7.938717 -5.711565
1311867173.640803 0.754358 7.938717 -5.711565
1311867173.644306 0.598697 7.914769 -5.951044
1311867173.645449 0.598697 7.914769 -5.951044
1311867173.646680 0.598697 7.914769 -5.951044
1311867173.647682 0.598697 7.914769 -5.951044
1311867173.650815 0.802253 7.747134 -6.142627
1311867173.651768 0.802253 7.747134 -6.142627
1311867173.655460 0.802253 7.555551 -6.238418
1311867173.656433 0.802253 7.555551 -6.238418
1311867173.659728 0.838175 7.555551 -6.142627
1311867173.660683 0.838175 7.555551 -6.142627
1311867173.664262 0.814227 7.555551 -6.142627
1311867173.665289 0.814227 7.555551 -6.142627
1311867173.666296 0.814227 7.555551 -6.142627
1311867173.669618 0.790279 7.555551 -6.142627
1311867173.670656 0.790279 7.555551 -6.142627
1311867173.673780 0.754358 7.555551 -6.142627
1311867173.675261 0.754358 7.555551 -6.142627
1311867173.676386 0.754358 7.555551 -6.142627
1311867173.677409 0.754358 7.555551 -6.142627
1311867173.680773 0.754358 7.507655 -5.759461
1311867173.683284 0.754358 7.507655 -5.759461
1311867173.685266 0.790279 7.555551 -5.759461
1311867173.686403 0.790279 7.555551 -5.759461
1311867173.689660 0.598697 7.579499 -5.663670
1311867173.690652 0.598697 7.579499 -5.663670
1311867173.694300 0.502905 7.747134 -5.567878
1311867173.695256 0.502905 7.747134 -5.567878
1311867173.696506 0.502905 7.747134 -5.567878
1311867173.697545 0.502905 7.747134 -5.567878
1311867173.700789 0.455009 7.962665 -5.376295
1311867173.701796 0.455009 7.962665 -5.376295
1311867173.705277 0.407114 7.962665 -5.376295
1311867173.706387 0.407114 7.962665 -5.376295
1311867173.709672 0.455009 8.321882 -4.993129
1311867173.710659 0.455009 8.321882 -4.993129
1311867173.714307 0.598697 8.226091 -4.993129
1311867173.715412 0.598697 8.226091 -4.993129
1311867173.716381 0.598697 8.226091 -4.993129
1311867173.719669 0.598697 8.130300 -4.801547
1311867173.720661 0.598697 8.130300 -4.801547
1311867173.724267 0.598697 8.130300 -4.993129
1311867173.725272 0.598697 8.130300 -4.993129
1311867173.726526 0.598697 8.130300 -4.993129
1311867173.727535 0.598697 8.130300 -4.993129
1311867173.730779 0.455009 7.950691 -4.993129
1311867173.731812 0.455009 7.950691 -4.993129
1311867173.735415 0.598697 7.890821 -5.280504
1311867173.736406 0.598697 7.890821 -5.280504
1311867173.739658 0.598697 7.747134 -5.663670
1311867173.740807 0.598697 7.747134 -5.663670
1311867173.744318 0.802253 7.747134 -5.759461
1311867173.745301 0.802253 7.747134 -5.759461
1311867173.746662 0.802253 7.747134 -5.759461
1311867173.747667 0.802253 7.747134 -5.759461
1311867173.750798 0.802253 7.747134 -5.951044
1311867173.751787 0.802253 7.747134 -5.951044
1311867173.755418 0.802253 7.890821 -6.334210
1311867173.756629 0.802253 7.890821 -6.334210
1311867173.757548 0.802253 7.890821 -6.334210
1311867173.760669 0.814227 7.651342 -6.334210
1311867173.761825 0.814227 7.651342 -6.334210
1311867173.765362 0.790279 7.555551 -6.430001
1311867173.766429 0.790279 7.555551 -6.430001
1311867173.770458 0.802253 7.555551 -6.334210
1311867173.771290 0.802253 7.555551 -6.334210
1311867173.773041 0.802253 7.555551 -6.334210
1311867173.775653 0.706462 7.914769 -6.334210
1311867173.777800 0.706462 7.914769 -6.334210
1311867173.780278 0.598697 7.938717 -6.046835
1311867173.781304 0.598697 7.938717 -6.046835
1311867173.785708 0.419088 7.938717 -5.759461
1311867173.786519 0.419088 7.938717 -5.759461
1311867173.787518 0.419088 7.938717 -5.759461
1311867173.790784 0.407114 7.986612 -5.663670
1311867173.791829 0.407114 7.986612 -5.663670
1311867173.795403 0.407114 7.938717 -5.184712
1311867173.796392 0.407114 7.938717 -5.184712
1311867173.799707 0.455009 8.130300 -5.184712
1311867173.800669 0.455009 8.130300 -5.184712
1311867173.804289 0.598697 8.226091 -4.897338
1311867173.805440 0.598697 8.226091 -4.897338
1311867173.806665 0.598697 8.226091 -4.897338
1311867173.807650 0.598697 8.226091 -4.897338
1311867173.810788 0.502905 7.986612 -4.993129
1311867173.811798 0.502905 7.986612 -4.993129
1311867173.815413 0.502905 7.938717 -5.184712
1311867173.816419 0.502905 7.938717 -5.184712
1311867173.819658 0.598697 8.034508 -5.376295
1311867173.820641 0.598697 8.034508 -5.376295
1311867173.824307 0.598697 7.890821 -5.472087
1311867173.825290 0.598697 7.890821 -5.472087
1311867173.826527 0.598697 7.890821 -5.472087
1311867173.827577 0.598697 7.890821 -5.472087
1311867173.830792 0.598697 7.938717 -5.747487
1311867173.831828 0.598697 7.938717 -5.747487
1311867173.835413 0.790279 7.938717 -5.663670
1311867173.836405 0.790279 7.938717 -5.663670
1311867173.839661 0.790279 7.890821 -5.855253
1311867173.840639 0.790279 7.890821 -5.855253
1311867173.844296 0.802253 7.842925 -6.142627
1311867173.845338 0.802253 7.842925 -6.142627
1311867173.846675 0.802253 7.842925 -6.142627
1311867173.847662 0.802253 7.842925 -6.142627
1311867173.850798 0.802253 7.747134 -6.142627
1311867173.851791 0.802253 7.747134 -6.142627
1311867173.855397 0.802253 7.747134 -6.154601
1311867173.856479 0.802253 7.747134 -6.154601
1311867173.859663 0.802253 7.651342 -6.238418
1311867173.860677 0.802253 7.651342 -6.238418
1311867173.864287 0.886071 7.747134 -6.166575
1311867173.865270 0.886071 7.747134 -6.166575
1311867173.866526 0.886071 7.747134 -6.166575
1311867173.867594 0.886071 7.747134 -6.166575
1311867173.870814 0.886071 7.747134 -6.142627
1311867173.871790 0.886071 7.747134 -6.142627
1311867173.875421 0.838175 7.747134 -6.142627
1311867173.876395 0.838175 7.747134 -6.142627
1311867173.879692 0.802253 7.926743 -5.951044
1311867173.880758 0.802253 7.926743 -5.951044
1311867173.884313 0.598697 7.842925 -5.951044
1311867173.885313 0.598697 7.842925 -5.951044
1311867173.886575 0.598697 7.842925 -5.951044
1311867173.887710 0.598697 7.842925 -5.951044
1311867173.890837 0.706462 7.842925 -5.711565
1311867173.891790 0.706462 7.842925 -5.711565
1311867173.895410 0.598697 7.842925 -5.364321
1311867173.896454 0.598697 7.842925 -5.364321
1311867173.899706 0.502905 7.938717 -5.088921
1311867173.900690 0.502905 7.938717 -5.088921
1311867173.904495 0.455009 7.890821 -5.041025
1311867173.905394 0.455009 7.890821 -5.041025
1311867173.906729 0.455009 7.890821 -5.041025
1311867173.909698 0.706462 7.938717 -4.657859
1311867173.910712 0.706462 7.938717 -4.657859
1311867173.914314 0.802253 7.938717 -4.657859
1311867173.915287 0.802253 7.938717 -4.657859
1311867173.916548 0.802253 7.938717 -4.657859
1311867173.917526 0.802253 7.938717 -4.657859
1311867173.920670 0.598697 7.938717 -4.609964
1311867173.921649 0.598697 7.938717 -4.609964
1311867173.925427 0.455009 7.842925 -4.801547
1311867173.926425 0.455009 7.842925 -4.801547
1311867173.929707 0.598697 7.938717 -5.088921
1311867173.930652 0.598697 7.938717 -5.088921
1311867173.934314 0.598697 7.938717 -5.376295
1311867173.935290 0.598697 7.938717 -5.376295
1311867173.936542 0.598697 7.938717 -5.376295
1311867173.937525 0.598697 7.938717 -5.376295
1311867173.940806 0.802253 7.747134 -5.567878
1311867173.941836 0.802253 7.747134 -5.567878
1311867173.945427 0.886071 7.555551 -5.663670
1311867173.946432 0.886071 7.555551 -5.663670
1311867173.949797 1.173445 7.459759 -5.951044
1311867173.950683 1.173445 7.459759 -5.951044
1311867173.954308 0.993836 7.363968 -6.046835
1311867173.955291 0.993836 7.363968 -6.046835
1311867173.956594 0.993836 7.363968 -6.046835
1311867173.957572 0.993836 7.363968 -6.046835
1311867173.960829 1.089628 7.172385 -6.190523
1311867173.961807 1.089628 7.172385 -6.190523
1311867173.965421 1.173445 7.172385 -6.334210
1311867173.966450 1.173445 7.172385 -6.334210
1311867173.969678 1.137524 7.172385 -6.142627
1311867173.970742 1.137524 7.172385 -6.142627
1311867173.974303 0.993836 7.268176 -6.046835
1311867173.975293 0.993836 7.268176 -6.046835
1311867173.976562 0.993836 7.268176 -6.046835
1311867173.977576 0.993836 7.268176 -6.046835
1311867173.980820 0.886071 7.363968 -5.759461
1311867173.981830 0.886071 7.363968 -5.759461
1311867173.985342 0.802253 7.363968 -5.663670
1311867173.986427 0.802253 7.363968 -5.663670
1311867173.989687 0.802253 7.555551 -5.376295
1311867173.990674 0.802253 7.555551 -5.376295
1311867173.994318 0.814227 7.555551 -5.184712
1311867173.995291 0.814227 7.555551 -5.184712
1311867173.996547 0.814227 7.555551 -5.184712
1311867173.997556 0.814227 7.555551 -5.184712
1311867174.000844 0.790279 7.603447 -4.993129
1311867174.001810 0.790279 7.603447 -4.993129
1311867174.005337 0.706462 7.651342 -4.993129
1311867174.006424 0.706462 7.651342 -4.993129
1311867174.009728 0.598697 7.747134 -4.801547
1311867174.010722 0.598697 7.747134 -4.801547
1311867174.014326 0.754358 7.747134 -4.801547
1311867174.015286 0.754358 7.747134 -4.801547
1311867174.016565 0.754358 7.747134 -4.801547
1311867174.017548 0.754358 7.747134 -4.801547
1311867174.020801 0.706462 7.842925 -4.609964
1311867174.022102 0.706462 7.842925 -4.609964
1311867174.025869 0.790279 7.938717 -4.705755
1311867174.026649 0.790279 7.938717 -4.705755
1311867174.027745 0.790279 7.938717 -4.705755
1311867174.030824 0.754358 7.938717 -4.993129
1311867174.031817 0.754358 7.938717 -4.993129
1311867174.035444 0.802253 7.890821 -5.041025
1311867174.036459 0.802253 7.890821 -5.041025
1311867174.039705 0.886071 7.938717 -5.376295
1311867174.040694 0.886071 7.938717 -5.376295
1311867174.044296 0.993836 7.914769 -5.424191
1311867174.045353 0.993836 7.914769 -5.424191
1311867174.046693 0.993836 7.914769 -5.424191
1311867174.047683 0.993836 7.914769 -5.424191
1311867174.050823 1.137524 7.747134 -5.759461
1311867174.051804 1.137524 7.747134 -5.759461
1311867174.055423 1.185419 7.747134 -5.783409
1311867174.056432 1.185419 7.747134 -5.783409
1311867174.059712 0.993836 7.555551 -5.951044
1311867174.060704 0.993836 7.555551 -5.951044
1311867174.064301 1.089628 7.363968 -6.142627
1311867174.065290 1.089628 7.363968 -6.142627
1311867174.066665 1.089628 7.363968 -6.142627
1311867174.067717 1.089628 7.363968 -6.142627
1311867174.070843 1.089628 7.555551 -6.238418
1311867174.071846 1.089628 7.555551 -6.238418
1311867174.075465 0.993836 7.555551 -6.430001
1311867174.076444 0.993836 7.555551 -6.430001
1311867174.079698 0.802253 7.555551 -6.430001
1311867174.080689 0.802253 7.555551 -6.430001
1311867174.084321 0.802253 7.567525 -6.430001
1311867174.085295 0.802253 7.567525 -6.430001
1311867174.086541 0.802253 7.567525 -6.430001
1311867174.087546 0.802253 7.567525 -6.430001
1311867174.090825 0.886071 7.842925 -5.855253
1311867174.091949 0.886071 7.842925 -5.855253
1311867174.095461 0.993836 7.938717 -5.735513
1311867174.096540 0.993836 7.938717 -5.735513
1311867174.099695 0.838175 7.914769 -5.472087
1311867174.100703 0.838175 7.914769 -5.472087
1311867174.104563 0.802253 7.938717 -5.328400
1311867174.105426 0.802253 7.938717 -5.328400
1311867174.106588 0.802253 7.938717 -5.328400
1311867174.109714 0.706462 7.962665 -5.184712
1311867174.110670 0.706462 7.962665 -5.184712
1311867174.114332 0.598697 7.950691 -5.184712
1311867174.115414 0.598697 7.950691 -5.184712
1311867174.116529 0.598697 7.950691 -5.184712
1311867174.119683 0.502905 7.986612 -5.088921
1311867174.120665 0.502905 7.986612 -5.088921
1311867174.124311 0.598697 7.938717 -5.041025
1311867174.125303 0.598697 7.938717 -5.041025
1311867174.126740 0.598697 7.938717 -5.041025
1311867174.127697 0.598697 7.938717 -5.041025
1311867174.130828 0.598697 8.130300 -5.184712
1311867174.132426 0.598697 8.130300 -5.184712
1311867174.135470 0.598697 7.938717 -5.184712
1311867174.136446 0.598697 7.938717 -5.184712
1311867174.139699 0.838175 7.938717 -5.364321
1311867174.140681 0.838175 7.938717 -5.364321
1311867174.144306 0.993836 7.938717 -5.424191
1311867174.145303 0.993836 7.938717 -5.424191
1311867174.146545 0.993836 7.938717 -5.424191
1311867174.147557 0.993836 7.938717 -5.424191
1311867174.150805 1.089628 7.842925 -5.759461
1311867174.151825 1.089628 7.842925 -5.759461
1311867174.155488 0.993836 7.747134 -5.951044
1311867174.156461 0.993836 7.747134 -5.951044
1311867174.159683 0.993836 7.555551 -6.334210
1311867174.160816 0.993836 7.555551 -6.334210
1311867174.164437 0.886071 7.507655 -6.477897
1311867174.165416 0.886071 7.507655 -6.477897
1311867174.166693 0.886071 7.507655 -6.477897
1311867174.167690 0.886071 7.507655 -6.477897
1311867174.170851 0.886071 7.459759 -6.573688
1311867174.171802 0.886071 7.459759 -6.573688
1311867174.175452 0.802253 7.555551 -6.525793
1311867174.176423 0.802253 7.555551 -6.525793
1311867174.179727 0.802253 7.507655 -6.334210
1311867174.180691 0.802253 7.507655 -6.334210
1311867174.184300 0.802253 7.459759 -6.190523
1311867174.185333 0.802253 7.459759 -6.190523
1311867174.186580 0.802253 7.459759 -6.190523
1311867174.187610 0.802253 7.459759 -6.190523
1311867174.190818 0.790279 7.555551 -5.951044
1311867174.191822 0.790279 7.555551 -5.951044
1311867174.195478 0.790279 7.459759 -5.855253
1311867174.196459 0.790279 7.459759 -5.855253
1311867174.199562 0.790279 7.555551 -5.759461
1311867174.200805 0.790279 7.555551 -5.759461
1311867174.201811 0.790279 7.555551 -5.759461
1311867174.203343 0.790279 7.555551 -5.759461
1311867174.206559 0.790279 7.603447 -5.376295
1311867174.207553 0.790279 7.603447 -5.376295
1311867174.210844 0.598697 7.651342 -5.184712
1311867174.211799 0.598697 7.651342 -5.184712
1311867174.215460 0.598697 7.747134 -5.041025
1311867174.216451 0.598697 7.747134 -5.041025
1311867174.219726 0.431062 7.938717 -5.088921
1311867174.220673 0.431062 7.938717 -5.088921
1311867174.224406 0.323296 7.938717 -5.005103
1311867174.225315 0.323296 7.938717 -5.005103
1311867174.226668 0.323296 7.938717 -5.005103
1311867174.227601 0.323296 7.938717 -5.005103
1311867174.230850 0.407114 7.938717 -4.801547
1311867174.231829 0.407114 7.938717 -4.801547
1311867174.235449 0.407114 7.938717 -5.005103
1311867174.236582 0.407114 7.938717 -5.005103
1311867174.239725 0.502905 7.938717 -5.088921
1311867174.240722 0.502905 7.938717 -5.088921
1311867174.244312 0.754358 7.938717 -5.424191
1311867174.245309 0.754358 7.938717 -5.424191
1311867174.246681 0.754358 7.938717 -5.424191
1311867174.247676 0.754358 7.938717 -5.424191
1311867174.250808 0.802253 7.938717 -5.759461
1311867174.251820 0.802253 7.938717 -5.759461
1311867174.255449 0.886071 7.747134 -5.807357
1311867174.256848 0.886071 7.747134 -5.807357
1311867174.259689 0.598697 7.651342 -6.154601
1311867174.260828 0.598697 7.651342 -6.154601
1311867174.264451 0.790279 7.555551 -6.525793
1311867174.265422 0.790279 7.555551 -6.525793
1311867174.266710 0.790279 7.555551 -6.525793
1311867174.267694 0.790279 7.555551 -6.525793
1311867174.270854 0.598697 7.555551 -6.573688
1311867174.271826 0.598697 7.555551 -6.573688
1311867174.275445 0.598697 7.363968 -6.621584
1311867174.276438 0.598697 7.363968 -6.621584
1311867174.279693 0.502905 7.555551 -6.334210
1311867174.280777 0.502905 7.555551 -6.334210
1311867174.281940 0.502905 7.555551 -6.334210
1311867174.283302 0.502905 7.555551 -6.334210
1311867174.286592 0.598697 7.555551 -6.142627
1311867174.287586 0.598697 7.555551 -6.142627
1311867174.290846 0.598697 7.651342 -5.951044
1311867174.291821 0.598697 7.651342 -5.951044
1311867174.295460 0.706462 7.890821 -5.759461
1311867174.296424 0.706462 7.890821 -5.759461
1311867174.299711 0.455009 7.890821 -5.567878
1311867174.300931 0.455009 7.890821 -5.567878
1311867174.304316 0.502905 7.938717 -5.328400
1311867174.305327 0.502905 7.938717 -5.328400
1311867174.306554 0.502905 7.938717 -5.328400
1311867174.307709 0.502905 7.938717 -5.328400
1311867174.310832 0.502905 7.938717 -5.184712
1311867174.311828 0.502905 7.938717 -5.184712
1311867174.315477 0.598697 8.130300 -5.184712
1311867174.316462 0.598697 8.130300 -5.184712
1311867174.319720 0.598697 8.226091 -5.088921
1311867174.320711 0.598697 8.226091 -5.088921
1311867174.324314 0.778306 8.034508 -5.376295
1311867174.325311 0.778306 8.034508 -5.376295
1311867174.326574 0.778306 8.034508 -5.376295
1311867174.327594 0.778306 8.034508 -5.376295
1311867174.330864 0.598697 7.842925 -5.567878
1311867174.331828 0.598697 7.842925 -5.567878
1311867174.335457 0.407114 7.747134 -5.711565
1311867174.336489 0.407114 7.747134 -5.711565
1311867174.339720 0.407114 7.603447 -5.855253
1311867174.340685 0.407114 7.603447 -5.855253
1311867174.344314 0.706462 7.555551 -5.855253
1311867174.345330 0.706462 7.555551 -5.855253
1311867174.346604 0.706462 7.555551 -5.855253
1311867174.347708 0.706462 7.555551 -5.855253
1311867174.350820 0.706462 7.555551 -5.951044
1311867174.351811 0.706462 7.555551 -5.951044
1311867174.355443 0.598697 7.747134 -6.118679
1311867174.356437 0.598697 7.747134 -6.118679
1311867174.359576 0.802253 7.747134 -6.130653
1311867174.360726 0.802253 7.747134 -6.130653
1311867174.361821 0.802253 7.747134 -6.130653
1311867174.363337 0.802253 7.747134 -6.130653
1311867174.366600 0.886071 7.890821 -6.142627
1311867174.367580 0.886071 7.890821 -6.142627
1311867174.370869 0.993836 7.842925 -6.166575
1311867174.371835 0.993836 7.842925 -6.166575
1311867174.375367 0.993836 7.842925 -6.142627
1311867174.376321 0.993836 7.842925 -6.142627
1311867174.379723 0.993836 7.603447 -6.334210
1311867174.380714 0.993836 7.603447 -6.334210
1311867174.381814 0.993836 7.603447 -6.334210
1311867174.383316 0.993836 7.603447 -6.334210
1311867174.386587 0.814227 7.555551 -6.477897
1311867174.387578 0.814227 7.555551 -6.477897
1311867174.390839 0.993836 7.459759 -6.525793
1311867174.391849 0.993836 7.459759 -6.525793
1311867174.395458 0.802253 7.459759 -6.477897
1311867174.396457 0.802253 7.459759 -6.477897
1311867174.399703 0.802253 7.555551 -6.477897
1311867174.400735 0.802253 7.555551 -6.477897
1311867174.404329 0.754358 7.651342 -6.046835
1311867174.405318 0.754358 7.651342 -6.046835
1311867174.406560 0.754358 7.651342 -6.046835
1311867174.407688 0.754358 7.651342 -6.046835
1311867174.410853 0.598697 7.747134 -5.711565
1311867174.411858 0.598697 7.747134 -5.711565
1311867174.415471 0.706462 7.747134 -5.376295
1311867174.416487 0.706462 7.747134 -5.376295
1311867174.419693 0.598697 7.890821 -5.184712
1311867174.420809 0.598697 7.890821 -5.184712
1311867174.424340 0.407114 7.938717 -4.981156
1311867174.425331 0.407114 7.938717 -4.981156
1311867174.426579 0.407114 7.938717 -4.981156
1311867174.427706 0.407114 7.938717 -4.981156
1311867174.430851 0.502905 7.938717 -4.801547
1311867174.431818 0.502905 7.938717 -4.801547
1311867174.435476 0.598697 7.938717 -4.993129
1311867174.436462 0.598697 7.938717 -4.993129
1311867174.439709 0.502905 7.938717 -4.993129
1311867174.440687 0.502905 7.938717 -4.993129
1311867174.441976 0.502905 7.938717 -4.993129
1311867174.443314 0.502905 7.938717 -4.993129
1311867174.446604 0.598697 7.938717 -5.280504
1311867174.447588 0.598697 7.938717 -5.280504
1311867174.450825 0.706462 7.890821 -5.400243
1311867174.451814 0.706462 7.890821 -5.400243
1311867174.455446 0.598697 7.842925 -5.759461
1311867174.456585 0.598697 7.842925 -5.759461
1311867174.459696 0.802253 7.603447 -5.951044
1311867174.460698 0.802253 7.603447 -5.951044
1311867174.464346 0.886071 7.555551 -6.142627
1311867174.465343 0.886071 7.555551 -6.142627
1311867174.466716 0.886071 7.555551 -6.142627
1311867174.467561 0.886071 7.555551 -6.142627
1311867174.470852 1.089628 7.363968 -6.334210
1311867174.471857 1.089628 7.363968 -6.334210
1311867174.475461 1.173445 7.172385 -6.430001
1311867174.476493 1.173445 7.172385 -6.430001
1311867174.479703 1.089628 7.172385 -6.525793
1311867174.480733 1.089628 7.172385 -6.525793
1311867174.484325 0.993836 7.076594 -6.430001
1311867174.485310 0.993836 7.076594 -6.430001
1311867174.486582 0.993836 7.076594 -6.430001
1311867174.487615 0.993836 7.076594 -6.430001
1311867174.490827 0.802253 7.172385 -6.046835
1311867174.491838 0.802253 7.172385 -6.046835
1311867174.495452 0.706462 7.196333 -5.771435
1311867174.496436 0.706462 7.196333 -5.771435
1311867174.499751 0.706462 7.268176 -5.771435
1311867174.500710 0.706462 7.268176 -5.771435
1311867174.504335 0.502905 7.567525 -5.376295
1311867174.505334 0.502905 7.567525 -5.376295
1311867174.506692 0.502905 7.567525 -5.376295
1311867174.507720 0.502905 7.567525 -5.376295
1311867174.510850 0.455009 7.842925 -4.801547
1311867174.511834 0.455009 7.842925 -4.801547
1311867174.515455 0.598697 7.926743 -4.993129
1311867174.516439 0.598697 7.926743 -4.993129
1311867174.519702 0.598697 8.034508 -4.657859
1311867174.520718 0.598697 8.034508 -4.657859
1311867174.524318 0.706462 8.130300 -4.801547
1311867174.525510 0.706462 8.130300 -4.801547
1311867174.526707 0.706462 8.130300 -4.801547
1311867174.527720 0.706462 8.130300 -4.801547
1311867174.530843 0.598697 8.130300 -5.184712
1311867174.531820 0.598697 8.130300 -5.184712
1311867174.535514 0.502905 7.938717 -5.376295
1311867174.536463 0.502905 7.938717 -5.376295
1311867174.539719 0.598697 7.938717 -5.663670
1311867174.540755 0.598697 7.938717 -5.663670
1311867174.544332 0.407114 7.842925 -5.759461
1311867174.545443 0.407114 7.842925 -5.759461
1311867174.546692 0.407114 7.842925 -5.759461
1311867174.547688 0.407114 7.842925 -5.759461
1311867174.550823 0.706462 7.555551 -5.807357
1311867174.551809 0.706462 7.555551 -5.807357
1311867174.555371 0.778306 7.555551 -5.951044
1311867174.556471 0.778306 7.555551 -5.951044
1311867174.559753 0.706462 7.579499 -6.094731
1311867174.560716 0.706462 7.579499 -6.094731
1311867174.561981 0.706462 7.579499 -6.094731
1311867174.563314 0.706462 7.579499 -6.094731
1311867174.566625 0.754358 7.555551 -5.855253
1311867174.567640 0.754358 7.555551 -5.855253
1311867174.570875 0.993836 7.555551 -6.142627
1311867174.571861 0.993836 7.555551 -6.142627
1311867174.575503 0.886071 7.579499 -6.118679
1311867174.576499 0.886071 7.579499 -6.118679
1311867174.579704 0.993836 7.651342 -6.238418
1311867174.580736 0.993836 7.651342 -6.238418
1311867174.584394 0.802253 7.555551 -6.238418
1311867174.585359 0.802253 7.555551 -6.238418
1311867174.586572 0.802253 7.555551 -6.238418
1311867174.587611 0.802253 7.555551 -6.238418
1311867174.590889 0.993836 7.603447 -6.334210
1311867174.591844 0.993836 7.603447 -6.334210
1311867174.595455 0.993836 7.555551 -6.525793
1311867174.596437 0.993836 7.555551 -6.525793
1311867174.599720 0.886071 7.555551 -6.334210
1311867174.600759 0.886071 7.555551 -6.334210
1311867174.604330 0.802253 7.543577 -6.166575
1311867174.605316 0.802253 7.543577 -6.166575
1311867174.606595 0.802253 7.543577 -6.166575
1311867174.607632 0.802253 7.543577 -6.166575
1311867174.610884 0.502905 7.459759 -5.951044
1311867174.611903 0.502905 7.459759 -5.951044
1311867174.615479 0.598697 7.507655 -5.855253
1311867174.616450 0.598697 7.507655 -5.855253
1311867174.619699 0.598697 7.555551 -5.567878
1311867174.620862 0.598697 7.555551 -5.567878
1311867174.624367 0.598697 7.579499 -5.328400
1311867174.625382 0.598697 7.579499 -5.328400
1311867174.626585 0.598697 7.579499 -5.328400
1311867174.627748 0.598697 7.579499 -5.328400
1311867174.630858 0.419088 7.842925 -5.328400
1311867174.631893 0.419088 7.842925 -5.328400
1311867174.635473 0.407114 7.938717 -4.993129
1311867174.636459 0.407114 7.938717 -4.993129
1311867174.639714 0.502905 8.130300 -4.993129
1311867174.640720 0.502905 8.130300 -4.993129
1311867174.644361 0.455009 7.986612 -5.088921
1311867174.645393 0.455009 7.986612 -5.088921
1311867174.646579 0.455009 7.986612 -5.088921
1311867174.647608 0.455009 7.986612 -5.088921
1311867174.650844 0.502905 8.130300 -4.801547
1311867174.651843 0.502905 8.130300 -4.801547
1311867174.655601 0.706462 8.297935 -5.472087
1311867174.656588 0.706462 8.297935 -5.472087
1311867174.659873 0.802253 7.986612 -5.759461
1311867174.660871 0.802253 7.986612 -5.759461
1311867174.665195 0.993836 7.842925 -5.951044
1311867174.666366 0.993836 7.842925 -5.951044
1311867174.669491 0.993836 7.555551 -6.238418
1311867174.670616 0.993836 7.555551 -6.238418
1311867174.671733 0.993836 7.555551 -6.238418
1311867174.672868 0.993836 7.555551 -6.238418
1311867174.676507 1.185419 7.172385 -6.334210
1311867174.677485 1.185419 7.172385 -6.334210
1311867174.680742 1.137524 6.980802 -6.430001
1311867174.681739 1.137524 6.980802 -6.430001
1311867174.685337 0.993836 7.172385 -6.525793
1311867174.686483 0.993836 7.172385 -6.525793
1311867174.690259 0.838175 7.076594 -6.717376
1311867174.691334 0.838175 7.076594 -6.717376
1311867174.692329 0.838175 7.076594 -6.717376
1311867174.693338 0.838175 7.076594 -6.717376
1311867174.696817 0.993836 7.268176 -6.621584
1311867174.697744 0.993836 7.268176 -6.621584
1311867174.700969 0.886071 7.363968 -6.430001
1311867174.702351 0.886071 7.363968 -6.430001
1311867174.705478 0.802253 7.579499 -6.334210
1311867174.706464 0.802253 7.579499 -6.334210
1311867174.709739 0.814227 7.747134 -6.142627
1311867174.710830 0.814227 7.747134 -6.142627
1311867174.714514 0.778306 7.842925 -5.735513
1311867174.715485 0.778306 7.842925 -5.735513
1311867174.716767 0.778306 7.842925 -5.735513
1311867174.717703 0.778306 7.842925 -5.735513
1311867174.720923 0.598697 7.938717 -5.759461
1311867174.721836 0.598697 7.938717 -5.759461
1311867174.723329 0.598697 7.938717 -5.759461
1311867174.726626 0.598697 7.938717 -5.400243
1311867174.727595 0.598697 7.938717 -5.400243
1311867174.730743 0.598697 7.938717 -5.376295
1311867174.731898 0.598697 7.938717 -5.376295
1311867174.735372 0.502905 7.986612 -5.472087
1311867174.736479 0.502905 7.986612 -5.472087
1311867174.739820 0.455009 7.986612 -5.280504
1311867174.740742 0.455009 7.986612 -5.280504
1311867174.741952 0.455009 7.986612 -5.280504
1311867174.743335 0.455009 7.986612 -5.280504
1311867174.746589 0.802253 7.842925 -5.328400
1311867174.747727 0.802253 7.842925 -5.328400
1311867174.750852 0.802253 7.651342 -5.376295
1311867174.751835 0.802253 7.651342 -5.376295
1311867174.755336 0.802253 7.603447 -5.567878
1311867174.756479 0.802253 7.603447 -5.567878
1311867174.759727 0.802253 7.567525 -5.759461
1311867174.760786 0.802253 7.567525 -5.759461
1311867174.761977 0.802253 7.567525 -5.759461
1311867174.763352 0.802253 7.567525 -5.759461
1311867174.766654 0.802253 7.651342 -5.759461
1311867174.769773 0.802253 7.579499 -6.142627
1311867174.770885 0.802253 7.579499 -6.142627
1311867174.774366 0.802253 7.603447 -6.142627
1311867174.776020 0.802253 7.603447 -6.142627
1311867174.779345 0.598697 7.603447 -6.238418
1311867174.780382 0.598697 7.603447 -6.238418
1311867174.781779 0.598697 7.603447 -6.238418
1311867174.782598 0.598697 7.603447 -6.238418
1311867174.785726 0.802253 7.747134 -6.190523
1311867174.786844 0.802253 7.747134 -6.190523
1311867174.790347 0.802253 7.747134 -6.190523
1311867174.791493 0.802253 7.747134 -6.190523
1311867174.794821 0.802253 7.890821 -6.142627
1311867174.795877 0.802253 7.890821 -6.142627
1311867174.796844 0.802253 7.890821 -6.142627
1311867174.800354 0.802253 7.938717 -6.094731
1311867174.801348 0.802253 7.938717 -6.094731
1311867174.804752 0.802253 7.938717 -6.166575
1311867174.805807 0.802253 7.938717 -6.166575
1311867174.809241 0.802253 8.130300 -6.142627
1311867174.810346 0.802253 8.130300 -6.142627
1311867174.811616 0.802253 8.130300 -6.142627
1311867174.812595 0.802253 8.130300 -6.142627
1311867174.815839 0.802253 7.938717 -5.855253
1311867174.816872 0.802253 7.938717 -5.855253
1311867174.820513 0.790279 7.842925 -5.711565
1311867174.821491 0.790279 7.842925 -5.711565
1311867174.824753 0.802253 7.651342 -5.807357
1311867174.825819 0.802253 7.651342 -5.807357
1311867174.829348 0.598697 7.555551 -5.759461
1311867174.830358 0.598697 7.555551 -5.759461
1311867174.831612 0.598697 7.555551 -5.759461
1311867174.832609 0.598697 7.555551 -5.759461
1311867174.835860 0.802253 7.268176 -5.759461
1311867174.837660 0.802253 7.268176 -5.759461
1311867174.840491 0.802253 7.268176 -5.567878
1311867174.841464 0.802253 7.268176 -5.567878
1311867174.844903 0.802253 7.172385 -5.567878
1311867174.845864 0.802253 7.172385 -5.567878
1311867174.846898 0.802253 7.172385 -5.567878
1311867174.850514 0.993836 7.172385 -5.567878
1311867174.851497 0.993836 7.172385 -5.567878
1311867174.854731 0.838175 7.172385 -5.567878
1311867174.855723 0.838175 7.172385 -5.567878
1311867174.859358 0.993836 7.172385 -5.472087
1311867174.860340 0.993836 7.172385 -5.472087
1311867174.861629 0.993836 7.172385 -5.472087
1311867174.862723 0.993836 7.172385 -5.472087
1311867174.865711 0.993836 7.172385 -5.472087
1311867174.866863 0.993836 7.172385 -5.472087
1311867174.870482 0.886071 7.363968 -5.567878
1311867174.871467 0.886071 7.363968 -5.567878
1311867174.874633 0.814227 7.507655 -5.567878
1311867174.875581 0.814227 7.507655 -5.567878
1311867174.876873 0.814227 7.507655 -5.567878
1311867174.877868 0.814227 7.507655 -5.567878
1311867174.881521 0.802253 7.555551 -5.472087
1311867174.882631 0.802253 7.555551 -5.472087
1311867174.885747 0.993836 7.747134 -5.567878
1311867174.886847 0.993836 7.747134 -5.567878
1311867174.890491 1.089628 7.747134 -5.472087
1311867174.891483 1.089628 7.747134 -5.472087
1311867174.894788 1.161471 7.651342 -5.567878
1311867174.895729 1.161471 7.651342 -5.567878
1311867174.899367 1.161471 7.842925 -5.759461
1311867174.900355 1.161471 7.842925 -5.759461
1311867174.901793 1.161471 7.842925 -5.759461
1311867174.904778 1.173445 7.747134 -5.711565
1311867174.905740 1.173445 7.747134 -5.711565
1311867174.909374 0.993836 7.747134 -6.046835
1311867174.910357 0.993836 7.747134 -6.046835
1311867174.911591 0.993836 7.747134 -6.046835
1311867174.912595 0.993836 7.747134 -6.046835
1311867174.915874 0.993836 7.555551 -6.334210
1311867174.916869 0.993836 7.555551 -6.334210
1311867174.920501 0.993836 7.555551 -6.334210
1311867174.921496 0.993836 7.555551 -6.334210
1311867174.924755 0.993836 7.459759 -6.430001
1311867174.925753 0.993836 7.459759 -6.430001
1311867174.929446 0.802253 7.363968 -6.501845
1311867174.930457 0.802253 7.363968 -6.501845
1311867174.931620 0.802253 7.363968 -6.501845
1311867174.932667 0.802253 7.363968 -6.501845
1311867174.936009 0.754358 7.363968 -6.142627
1311867174.939546 0.598697 7.363968 -5.759461
1311867174.940504 0.598697 7.363968 -5.759461
1311867174.941477 0.598697 7.363968 -5.759461
1311867174.944784 0.502905 7.507655 -5.663670
1311867174.945760 0.502905 7.507655 -5.663670
1311867174.949353 0.419088 7.555551 -5.472087
1311867174.950341 0.419088 7.555551 -5.472087
1311867174.951601 0.419088 7.555551 -5.472087
1311867174.952597 0.419088 7.555551 -5.472087
1311867174.955853 0.598697 7.842925 -5.352347
1311867174.956885 0.598697 7.842925 -5.352347
1311867174.960484 0.754358 7.938717 -4.993129
1311867174.961496 0.754358 7.938717 -4.993129
1311867174.964758 0.754358 8.034508 -4.801547
1311867174.965720 0.754358 8.034508 -4.801547
1311867174.969378 0.790279 8.130300 -5.088921
1311867174.970617 0.790279 8.130300 -5.088921
1311867174.972001 0.790279 8.130300 -5.088921
1311867174.974818 0.502905 8.130300 -5.280504
1311867174.975758 0.502905 8.130300 -5.280504
1311867174.979353 0.502905 7.986612 -5.472087
1311867174.980346 0.502905 7.986612 -5.472087
1311867174.981633 0.502905 7.986612 -5.472087
1311867174.982737 0.502905 7.986612 -5.472087
